Purchasing Document,Company Code,Purch. Doc. Category,Purchasing Doc. Type,Control indicator,Deletion indicator,Status,Created on,Created by,Last Changed,Item Number Interval,Last Item,Vendor,Language Key,Payment terms,Payment in,Payment in,Payment in,Disc.percent 1,Disc.percent 2,Purch. organization,Purchasing Group,Currency,Exchange Rate,Fixed Exchange Rate,Document Date,Validity Per. Start,Validity Period End,Application Close,Quotation Deadline,Binding Period,Warr. Date,Bid invitation,Quotation,Quotation Date,Your Reference,Salesperson,Telephone,Goods Supplier,Customer,Outline agreement,Field Not Used,Complete Delivery,GR Message,Supplying Plant,Receiving Supplier,Incoterms,Incoterms (Part 2),Targ.Val. (Hdr),Distribution Type,Collective Number,Doc. Condition No.,Procedure,Update Group (stats),Invoicing Party,Number of Foreign Trade Data,Our Reference,Logical System,Subitem Interval,Time-dep. conditions,Release group,Release Strategy,Release indicator,Release State,Subject to release,Cntry for Tax Return,Rel. documentation,Address Number,Country Sls Tax No.,VAT Registration No.,Reason for Canc.,Document number,Corr. misc. provis.,Incomplete,Purchasing doc. processing state,Total val. upon release,Version,SCMPROC,Reason Code,Category of Incompleteness,Retention,Retention in Percent,Down Payment,Down Payt Percentage,Down Payment Amount,Due Date for Down Payment,Process ID No.,Part of a Contract Hierarchy,Threshold Value for Exchange Rates,Legal Contract Number,Contract Name,Release Date of Contract,Shipping Type,Handover Location,Shipping Conditions,Incoterms Version,Incoterms Location 1,Incoterms Location 2,Currency,relevant for Intrastat,exclude from Intrastat,Quotation Start Date,Follow-On Document Category,Follow-On Document Type,Ext. Include,ID of External Reference System,External Reference ID,Timestamp for Revision of External Calls,Business Purpose Completed,Document is aged,GUID 32,Counter,Relocation ID,Relocation Step ID,Logical system,Transaction Number,Item Group,Last VAS Item Number,Ord. Sch. Fields Changed Manually,Reference UUID of Transportation Mgmt,Annexing Package key,Annexing Package Extend,Base Date,Annexing Date Type,Annexing start date,deviation percentage,Annexed indicator,Limit date,Char20,New base date,Accountant general method,Do not allow negative annexing,Purch. organization,Known Index Indicator,S1POSTAT Check,Interest indicator,Snapshot Status,Procedure number,Adjustment/contest,Contract Type,Legal competence,Miscellaneous,Despatch,Date,Job,Assessment,Date,Job,Contract,Document Category,Same Delivery Date,Same Plant,Firm Deal Indicator,Take Account of Purch. Group,Take Account of Plnt,Take Account of Contract,Take Account of Item Categ.,Take Account of Fixed-Date Purchases,Consider Budget,Take Account of Alloc. Table Relevance,Take Account of Dlvy Period,Take Account of Delivery Date,Include Vendor Subrange,OTB Check Level,OTB Condition Type,Budget Number,Required Budget,OTB Currency,Reserved Budget,Special Release Budget,OTB Reason Profile for Special Release,Budget Type,OTB Check Status,Reason OTB Status,Type of OTB Check,OTB-Relevant Contract,Indicator Level for Contracts,Distrib. Using Target Value or Item Data
4500000002,1710,F,NB,,,9,10/8/2017,BPINST,9/12/2025 22:54,1,9,USSU-VSF02,EN,0002,14,30,0,2.000,0.000,1710,002,USD,"1,00000",,10/8/2017,,,,,,,,,,,,,,,,,,,,,,,0.00,,,1000000001,A17001,SAP,,,,,1,,,,,,,US,,,US,,0,,,,02,0.00,,,,,,0.00,,0.00,0.00,,,,,,,,,,,,,,USD,,,,,,,,,1/0/1900 0:00,,,,0,,,,,0,0,,,0,0,,,,0.000,,,,,,,,,,,,0,,,,,,,,,,,,,,,,,,,,,,,,,,,,0,0.00,,0.00,0.00,,,,,,,,
4500000011,1710,F,NB,,L,9,10/8/2017,BPINST,10/8/2017 23:26,1,1,USSU-VSF01,EN,0002,14,30,0,2.000,0.000,1710,002,USD,"1,00000",,10/8/2017,,,,,,,,,,,,,,,,,,,,,,,0.00,,,1000000010,A17001,SAP,,,,,1,,,,,,,US,,,US,,0,,,,02,0.00,,,,,,0.00,,0.00,0.00,,,,,,,,,,,,,,USD,,,,,,,,,1/0/1900 0:00,,,,0,,,,,0,0,,,0,0,,,,0.000,,,,,,,,,,,,0,,,,,,,,,,,,,,,,,,,,,,,,,,,,0,0.00,,0.00,0.00,,,,,,,,
4500000012,1710,F,NB,,L,9,10/8/2017,BPINST,10/8/2017 23:26,1,1,USSU-VSF01,EN,0002,14,30,0,2.000,0.000,1710,002,USD,"1,00000",,10/8/2017,,,,,,,,,,,,,,,,,,,,,,,0.00,,,1000000011,A17001,SAP,,,,,1,,,,,,,US,,,US,,0,,,,02,0.00,,,,,,0.00,,0.00,0.00,,,,,,,,,,,,,,USD,,,,,,,,,1/0/1900 0:00,,,,0,,,,,0,0,,,0,0,,,,0.000,,,,,,,,,,,,0,,,,,,,,,,,,,,,,,,,,,,,,,,,,0,0.00,,0.00,0.00,,,,,,,,
4500000016,1710,F,NB,,L,9,10/8/2017,BPINST,10/8/2017 23:57,1,10,USSU-VSF05,EN,0002,14,30,0,2.000,0.000,1710,002,USD,"1,00000",,10/8/2017,,,,,,,,,,,,,,,,,,,,,,,0.00,,,1000000015,A17001,SAP,,,,,1,,,,,,,US,,,US,,0,,,,02,0.00,,,,,,0.00,,0.00,0.00,,,,,,,,,,,,,,USD,,,,,,,,,1/0/1900 0:00,,,,0,,,,,0,0,,,0,0,,,,0.000,,,,,,,,,,,,0,,,,,,,,,,,,,,,,,,,,,,,,,,,,0,0.00,,0.00,0.00,,,,,,,,
4500000017,1710,F,NB,,,9,10/8/2017,BPINST,10/8/2017 23:57,1,10,USSU-VSF06,EN,NT30,30,0,0,0.000,0.000,1710,002,USD,"1,00000",,10/8/2017,,,,,,,,,,,,,,,,,,,,,,,0.00,,,1000000016,A17001,SAP,,,,,1,,,,,,,US,,,US,,0,,,,02,0.00,,,,,,0.00,,0.00,0.00,,,,,,,,,,,,,,USD,,,,,,,,,1/0/1900 0:00,,,,0,,,,,0,0,,,0,0,,,,0.000,,,,,,,,,,,,0,,,,,,,,,,,,,,,,,,,,,,,,,,,,0,0.00,,0.00,0.00,,,,,,,,
4500000018,1710,F,NB,,,9,10/8/2017,BPINST,10/8/2017 23:57,1,10,USSU-VSF07,EN,NT30,30,0,0,0.000,0.000,1710,002,USD,"1,00000",,10/8/2017,,,,,,,,,,,,,,,,,,,,,,,0.00,,,1000000017,A17001,SAP,,,,,1,,,,,,,US,,,US,,0,,,,02,0.00,,,,,,0.00,,0.00,0.00,,,,,,,,,,,,,,USD,,,,,,,,,1/0/1900 0:00,,,,0,,,,,0,0,,,0,0,,,,0.000,,,,,,,,,,,,0,,,,,,,,,,,,,,,,,,,,,,,,,,,,0,0.00,,0.00,0.00,,,,,,,,
4500000019,1710,F,NB,,,9,10/8/2017,BPINST,10/8/2017 23:57,1,7,USSU-VSF08,EN,0002,14,30,0,2.000,0.000,1710,002,USD,"1,00000",,10/8/2017,,,,,,,,,,,,,,,,,,,,,,,0.00,,,1000000018,A17001,SAP,,,,,1,,,,,,,US,,,US,,0,,,,02,0.00,,,,,,0.00,,0.00,0.00,,,,,,,,,,,,,,USD,,,,,,,,,1/0/1900 0:00,,,,0,,,,,0,0,,,0,0,,,,0.000,,,,,,,,,,,,0,,,,,,,,,,,,,,,,,,,,,,,,,,,,0,0.00,,0.00,0.00,,,,,,,,
4500000020,1710,F,NB,,,9,10/8/2017,BPINST,10/8/2017 23:57,1,7,USSU-VSF08,EN,0002,14,30,0,2.000,0.000,1710,002,USD,"1,00000",,10/8/2017,,,,,,,,,,,,,,,,,,,,,,,0.00,,,1000000019,A17001,SAP,,,,,1,,,,,,,US,,,US,,0,,,,02,0.00,,,,,,0.00,,0.00,0.00,,,,,,,,,,,,,,USD,,,,,,,,,1/0/1900 0:00,,,,0,,,,,0,0,,,0,0,,,,0.000,,,,,,,,,,,,0,,,,,,,,,,,,,,,,,,,,,,,,,,,,0,0.00,,0.00,0.00,,,,,,,,
4500000021,1710,F,NB,,,9,10/8/2017,BPINST,10/8/2017 23:57,1,7,USSU-VSF06,EN,NT30,30,0,0,0.000,0.000,1710,002,USD,"1,00000",,10/8/2017,,,,,,,,,,,,,,,,,,,,,,,0.00,,,1000000020,A17001,SAP,,,,,1,,,,,,,US,,,US,,0,,,,02,0.00,,,,,,0.00,,0.00,0.00,,,,,,,,,,,,,,USD,,,,,,,,,1/0/1900 0:00,,,,0,,,,,0,0,,,0,0,,,,0.000,,,,,,,,,,,,0,,,,,,,,,,,,,,,,,,,,,,,,,,,,0,0.00,,0.00,0.00,,,,,,,,
4500000022,1710,F,NB,,,9,10/8/2017,BPINST,10/8/2017 23:58,1,1,USSU-VSF01,EN,0002,14,30,0,2.000,0.000,1710,002,USD,"1,00000",,10/8/2017,,,,,,,,,,,,,,,,,,,,,,,0.00,,,1000000021,A17001,SAP,,,,,1,,,,,,,US,,,US,,0,,,,02,0.00,,,,,,0.00,,0.00,0.00,,,,,,,,,,,,,,USD,,,,,,,,,1/0/1900 0:00,,,,0,,,,,0,0,,,0,0,,,,0.000,,,,,,,,,,,,0,,,,,,,,,,,,,,,,,,,,,,,,,,,,0,0.00,,0.00,0.00,,,,,,,,
4500000023,1710,F,NB,,,9,10/8/2017,BPINST,10/8/2017 23:58,1,1,USSU-VSF01,EN,0002,14,30,0,2.000,0.000,1710,002,USD,"1,00000",,10/8/2017,,,,,,,,,,,,,,,,,,,,,,,0.00,,,1000000022,A17001,SAP,,,,,1,,,,,,,US,,,US,,0,,,,02,0.00,,,,,,0.00,,0.00,0.00,,,,,,,,,,,,,,USD,,,,,,,,,1/0/1900 0:00,,,,0,,,,,0,0,,,0,0,,,,0.000,,,,,,,,,,,,0,,,,,,,,,,,,,,,,,,,,,,,,,,,,0,0.00,,0.00,0.00,,,,,,,,
4500000024,1710,F,NB,,,9,10/8/2017,BPINST,10/8/2017 23:58,1,1,USSU-VSF01,EN,0002,14,30,0,2.000,0.000,1710,002,USD,"1,00000",,10/8/2017,,,,,,,,,,,,,,,,,,,,,,,0.00,,,1000000023,A17001,SAP,,,,,1,,,,,,,US,,,US,,0,,,,02,0.00,,,,,,0.00,,0.00,0.00,,,,,,,,,,,,,,USD,,,,,,,,,1/0/1900 0:00,,,,0,,,,,0,0,,,0,0,,,,0.000,,,,,,,,,,,,0,,,,,,,,,,,,,,,,,,,,,,,,,,,,0,0.00,,0.00,0.00,,,,,,,,
4500000025,1710,F,NB,,,9,10/9/2017,S4H_MM,10/9/2017 10:12,10,10,17300002,EN,0004,0,0,0,0.000,0.000,1710,003,USD,"1,00000",,10/9/2017,,,,,,,,,,,,,,,,,,,,,,,0.00,,,1000000040,A17001,SAP,,,,,1,,,,,,,US,,,US,,0,,,X,02,0.00,,,,H,,0.00,,0.00,0.00,,,,,,,,,,,,,,USD,,,,,,,,,1/0/1900 0:00,,,,0,,,,,0,0,,,0,0,,,,0.000,,,,,,,,,,,,0,,,,,,,,,,,,,,,,,,,,,,,,,,,,0,0.00,,0.00,0.00,,,,,,,,
4500000026,1710,F,NB,,,9,10/9/2017,S4H_MM,10/9/2017 12:08,10,10,17300002,EN,0004,0,0,0,0.000,0.000,1710,003,USD,"1,00000",,10/9/2017,,,,,,,,,,,,,,,,,,,,,,,0.00,,,1000000041,A17001,SAP,,,,,1,,,,,,,US,,,US,,0,,,X,02,0.00,,,,H,,0.00,,0.00,0.00,,,,,,,,,,,,,,USD,,,,,,,,,1/0/1900 0:00,,,,0,,,,,0,0,,,0,0,,,,0.000,,,,,,,,,,,,0,,,,,,,,,,,,,,,,,,,,,,,,,,,,0,0.00,,0.00,0.00,,,,,,,,
4500000027,1710,F,NB,,,9,10/10/2017,S4H_MM,10/10/2017 11:38,10,10,17300006,EN,0004,0,0,0,0.000,0.000,1710,002,USD,"1,00000",,10/10/2017,,,,,,,,,,,,,,,,,,,,,,,0.00,,,1000000080,A17001,,17300006,,,,1,,,,,,,US,,,,,0,,,,02,0.00,,,,,,0.00,,0.00,0.00,,,,,,,,,,,,,,USD,,,,,,,,,1/0/1900 0:00,,,,0,,,,,0,0,,,0,0,,,,0.000,,,,,,,,,,,,0,,,,,,,,,,,,,,,,,,,,,,,,,,,,0,0.00,,0.00,0.00,,,,,,,,
4500000028,1710,F,NB,,,9,10/10/2017,DDIC,10/11/2019 6:42,10,10,17300002,EN,0002,14,30,0,2.000,0.000,1710,001,EUR,"0,91591",,10/10/2017,,,,,,,,8000000001,10/10/2017,,,,,,,,,,,,,,0.00,,,1000000083,A17001,SAP,,,,,1,,,,,,,US,,,US,,0,,,,02,0.00,,,,,,0.00,,0.00,0.00,,,,,,,,,,,,,,USD,,,,,,,,,1/0/1900 0:00,,,,0,,,,,0,0,,,0,0,,,,0.000,,,,,,,,,,,,0,,,,,,,,,,,,,,,,,,,,,,,,,,,,0,0.00,,0.00,0.00,,,,,,,,
4500000029,1710,F,ENB,,,9,10/16/2017,S4H_MM,9/4/2025 3:24,10,10,17300001,EN,0004,0,0,0,0.000,0.000,1710,001,USD,"1,00000",,10/16/2017,,,,,,,,,,,,,,,,,,,,,,,0.00,,,1000000100,A17001,SAP,,,,,1,,,,,,,US,,,US,,0,,,,02,0.00,,,,,,0.00,,0.00,0.00,,,,,,,,,,,,,,USD,,,,,,,,,1/0/1900 0:00,,,,0,,,,,0,0,,,0,0,,,,0.000,,,,,,,,,,,,0,,,,,,,,,,,,,,,,,,,,,,,,,,,,0,0.00,,0.00,0.00,,,,,,,,
4500000032,1710,F,NB,,,9,10/16/2017,BPINST,10/16/2017 23:09,10,10,17300007,EN,0001,0,0,0,0.000,0.000,1710,001,USD,"1,00000",,10/16/2017,,,,,,,,,,,,,,,,,,,,,,,0.00,,,1000000103,A17001,SAP,17300007,,,,1,,,,,,,US,,,US,,0,,,,02,0.00,,,,,,0.00,,0.00,0.00,,,,,,,,,,,,,,USD,,,,,,,,,1/0/1900 0:00,,,,0,,,,,0,0,,,0,0,,,,0.000,,,,,,,,,,,,0,,,,,,,,,,,,,,,,,,,,,,,,,,,,0,0.00,,0.00,0.00,,,,,,,,
4500000033,1710,F,NB,,,9,10/16/2017,BPINST,3/21/2018 16:07,10,30,17300007,EN,0001,0,0,0,0.000,0.000,1710,001,USD,"1,00000",,10/16/2017,,,,,,,,,,,,,,,,,,,,,,,0.00,,,1000000104,A17001,SAP,17300007,,,,1,,,,,,,US,,,US,,0,,,,02,0.00,,,,,,0.00,,0.00,0.00,,,,,,,,,,,,,,USD,,,,,,,,,1/0/1900 0:00,,,,0,,,,,0,0,,,0,0,,,,0.000,,,,,,,,,,,,0,,,,,,,,,,,,,,,,,,,,,,,,,,,,0,0.00,,0.00,0.00,,,,,,,,
4500000034,1710,F,NB,,,9,10/17/2017,S4H_MM,10/17/2017 7:44,10,10,17300002,EN,0004,0,0,0,0.000,0.000,1710,001,USD,"1,00000",,10/17/2017,,,,,,,,,,,,,,,,,,,,,,,0.00,,,1000000105,A17001,SAP,,,,,1,,,,,,,US,,,US,,0,,,,02,0.00,,,,,,0.00,,0.00,0.00,,,,,,,,,,,,,,USD,,,,,,,,,1/0/1900 0:00,,,,0,,,,,0,0,,,0,0,,,,0.000,,,,,,,,,,,,0,,,,,,,,,,,,,,,,,,,,,,,,,,,,0,0.00,,0.00,0.00,,,,,,,,
4500000035,1710,F,NB,,,9,10/17/2017,S4H_MM,10/17/2017 10:56,10,10,17300001,EN,0004,0,0,0,0.000,0.000,1710,001,USD,"1,00000",,10/17/2017,,,,,,,,,,,,,,,,,,,,,,,0.00,,,1000000106,A17001,SAP,,,,,1,,,,,,,US,,,US,,0,,,,02,0.00,,,,,,0.00,,0.00,0.00,,,,,,,,,,,,,,USD,,,,,,,,,1/0/1900 0:00,,,,0,,,,,0,0,,,0,0,,,,0.000,,,,,,,,,,,,0,,,,,,,,,,,,,,,,,,,,,,,,,,,,0,0.00,,0.00,0.00,,,,,,,,
4500000036,1710,F,NB,,,9,10/17/2017,S4H_MM,8/23/2023 1:42,10,10,17300001,EN,0001,0,0,0,0.000,0.000,1710,001,USD,"1,00000",,10/17/2017,,,,,,,,,,,,,,,,,,,,,,,0.00,,,1000000107,A17001,,17300001,,,,1,,S1,SH,G,X,,US,,,,,0,,,,05,915.90,,,,,,0.00,,0.00,0.00,,,,,,,,,,,,,,USD,,,,,,,,,1/0/1900 0:00,,,,0,,,,,0,0,,,0,0,,,,0.000,,,,,,,,,,,,0,,,,,,,,,,,,,,,,,,,,,,,,,,,,0,0.00,,0.00,0.00,,,,,,,,
4500000038,1710,F,NB,,,9,10/17/2017,S4H_MM,10/17/2017 12:09,10,10,17300001,EN,0004,0,0,0,0.000,0.000,1710,002,USD,"1,00000",,10/17/2017,,,,,,,,,,,,,,,,,,,,,,,0.00,,,1000000109,A17001,SAP,,,,,1,,,,,,,US,,,US,,0,,,,02,0.00,,,,,,0.00,,0.00,0.00,,,,,,,,,,,,,,USD,,,,,,,,,1/0/1900 0:00,,,,0,,,,,0,0,,,0,0,,,,0.000,,,,,,,,,,,,0,,,,,,,,,,,,,,,,,,,,,,,,,,,,0,0.00,,0.00,0.00,,,,,,,,
4500000039,1710,F,NB,,,9,10/17/2017,S4H_MM,2/4/2020 20:42,10,10,17300001,EN,0004,0,0,0,0.000,0.000,1710,001,USD,"1,00000",,10/17/2017,,,,,,,,,,,,,,,,,,,,,,,0.00,,,1000000110,A17001,SAP,,,,,1,,,,,,,US,,,US,,0,,,,05,0.00,,,,,,0.00,,0.00,0.00,,,,,,,,,,,,,,USD,,,,,,,,,1/0/1900 0:00,,,,0,,,,,0,0,,,0,0,,,,0.000,,,,,,,,,,,,0,,,,,,,,,,,,,,,,,,,,,,,,,,,,0,0.00,,0.00,0.00,,,,,,,,
4500000040,1710,F,NB,,,9,10/17/2017,S4H_MM,10/17/2017 12:46,10,10,17300006,EN,0004,0,0,0,0.000,0.000,1710,002,USD,"1,00000",,10/17/2017,,,,,,,,,,,,,,,,,,,,,,,0.00,,,1000000111,A17001,,17300006,,,,1,,,,,,,US,,,,,0,,,,02,0.00,,,,,,0.00,,0.00,0.00,,,,,,,,,,,,,,USD,,,,,,,,,1/0/1900 0:00,,,,0,,,,,0,0,,,0,0,,,,0.000,,,,,,,,,,,,0,,,,,,,,,,,,,,,,,,,,,,,,,,,,0,0.00,,0.00,0.00,,,,,,,,
4500000041,1710,F,NB,,,9,10/17/2017,S4H_PP,10/17/2017 14:18,10,10,17300001,EN,0004,0,0,0,0.000,0.000,1710,001,USD,"1,00000",,10/17/2017,,,,,,,,,,,,,,,,,,,,,,,0.00,,,1000000112,A17001,SAP,,,,,1,,,,,,,US,,,US,,0,,,,02,0.00,,,,,,0.00,,0.00,0.00,,,,,,,,,,,,,,USD,,,,,,,,,1/0/1900 0:00,,,,0,,,,,0,0,,,0,0,,,,0.000,,,,,,,,,,,,0,,,,,,,,,,,,,,,,,,,,,,,,,,,,0,0.00,,0.00,0.00,,,,,,,,
4500000042,1710,F,NB,,,9,10/18/2017,S4H_CO,10/18/2017 12:57,1,9,USSU-VSF04,EN,0002,14,30,0,2.000,0.000,1710,002,USD,"1,00000",,10/18/2017,,,,,,,,,,,,,,,,,,,,,,,0.00,,,1000000113,A17001,SAP,,,,,1,,,,,,,US,,,US,,0,,,,02,0.00,,,,,,0.00,,0.00,0.00,,,,,,,,,,,,,,USD,,,,,,,,,1/0/1900 0:00,,,,0,,,,,0,0,,,0,0,,,,0.000,,,,,,,,,,,,0,,,,,,,,,,,,,,,,,,,,,,,,,,,,0,0.00,,0.00,0.00,,,,,,,,
4500000043,1710,F,NB,,,9,10/18/2017,S4H_CO,10/18/2017 12:57,1,9,USSU-VSF02,EN,0002,14,30,0,2.000,0.000,1710,002,USD,"1,00000",,10/18/2017,,,,,,,,,,,,,,,,,,,,,,,0.00,,,1000000114,A17001,SAP,,,,,1,,,,,,,US,,,US,,0,,,,02,0.00,,,,,,0.00,,0.00,0.00,,,,,,,,,,,,,,USD,,,,,,,,,1/0/1900 0:00,,,,0,,,,,0,0,,,0,0,,,,0.000,,,,,,,,,,,,0,,,,,,,,,,,,,,,,,,,,,,,,,,,,0,0.00,,0.00,0.00,,,,,,,,
4500000044,1710,F,NB,,,9,10/18/2017,S4H_CO,10/18/2017 12:57,1,9,USSU-VSF01,EN,0002,14,30,0,2.000,0.000,1710,002,USD,"1,00000",,10/18/2017,,,,,,,,,,,,,,,,,,,,,,,0.00,,,1000000115,A17001,SAP,,,,,1,,,,,,,US,,,US,,0,,,,02,0.00,,,,,,0.00,,0.00,0.00,,,,,,,,,,,,,,USD,,,,,,,,,1/0/1900 0:00,,,,0,,,,,0,0,,,0,0,,,,0.000,,,,,,,,,,,,0,,,,,,,,,,,,,,,,,,,,,,,,,,,,0,0.00,,0.00,0.00,,,,,,,,
4500000045,1710,F,NB,,,9,10/18/2017,S4H_CO,10/18/2017 12:57,1,10,USSU-VSF05,EN,0002,14,30,0,2.000,0.000,1710,002,USD,"1,00000",,10/18/2017,,,,,,,,,,,,,,,,,,,,,,,0.00,,,1000000116,A17001,SAP,,,,,1,,,,,,,US,,,US,,0,,,,02,0.00,,,,,,0.00,,0.00,0.00,,,,,,,,,,,,,,USD,,,,,,,,,1/0/1900 0:00,,,,0,,,,,0,0,,,0,0,,,,0.000,,,,,,,,,,,,0,,,,,,,,,,,,,,,,,,,,,,,,,,,,0,0.00,,0.00,0.00,,,,,,,,
4500000046,1710,F,NB,,,9,10/18/2017,S4H_CO,10/18/2017 12:57,1,10,USSU-VSF06,EN,NT30,30,0,0,0.000,0.000,1710,002,USD,"1,00000",,10/18/2017,,,,,,,,,,,,,,,,,,,,,,,0.00,,,1000000117,A17001,SAP,,,,,1,,,,,,,US,,,US,,0,,,,02,0.00,,,,,,0.00,,0.00,0.00,,,,,,,,,,,,,,USD,,,,,,,,,1/0/1900 0:00,,,,0,,,,,0,0,,,0,0,,,,0.000,,,,,,,,,,,,0,,,,,,,,,,,,,,,,,,,,,,,,,,,,0,0.00,,0.00,0.00,,,,,,,,
4500000047,1710,F,NB,,,9,10/18/2017,S4H_CO,10/18/2017 12:57,1,10,USSU-VSF07,EN,NT30,30,0,0,0.000,0.000,1710,002,USD,"1,00000",,10/18/2017,,,,,,,,,,,,,,,,,,,,,,,0.00,,,1000000118,A17001,SAP,,,,,1,,,,,,,US,,,US,,0,,,,02,0.00,,,,,,0.00,,0.00,0.00,,,,,,,,,,,,,,USD,,,,,,,,,1/0/1900 0:00,,,,0,,,,,0,0,,,0,0,,,,0.000,,,,,,,,,,,,0,,,,,,,,,,,,,,,,,,,,,,,,,,,,0,0.00,,0.00,0.00,,,,,,,,
4500000048,1710,F,NB,,,9,10/18/2017,S4H_CO,10/18/2017 12:57,1,7,USSU-VSF08,EN,0002,14,30,0,2.000,0.000,1710,002,USD,"1,00000",,10/18/2017,,,,,,,,,,,,,,,,,,,,,,,0.00,,,1000000119,A17001,SAP,,,,,1,,,,,,,US,,,US,,0,,,,02,0.00,,,,,,0.00,,0.00,0.00,,,,,,,,,,,,,,USD,,,,,,,,,1/0/1900 0:00,,,,0,,,,,0,0,,,0,0,,,,0.000,,,,,,,,,,,,0,,,,,,,,,,,,,,,,,,,,,,,,,,,,0,0.00,,0.00,0.00,,,,,,,,
4500000049,1710,F,NB,,,9,10/18/2017,S4H_CO,10/18/2017 12:57,1,7,USSU-VSF08,EN,0002,14,30,0,2.000,0.000,1710,002,USD,"1,00000",,10/18/2017,,,,,,,,,,,,,,,,,,,,,,,0.00,,,1000000120,A17001,SAP,,,,,1,,,,,,,US,,,US,,0,,,,02,0.00,,,,,,0.00,,0.00,0.00,,,,,,,,,,,,,,USD,,,,,,,,,1/0/1900 0:00,,,,0,,,,,0,0,,,0,0,,,,0.000,,,,,,,,,,,,0,,,,,,,,,,,,,,,,,,,,,,,,,,,,0,0.00,,0.00,0.00,,,,,,,,
4500000050,1710,F,NB,,,9,10/18/2017,S4H_CO,10/18/2017 12:57,1,7,USSU-VSF06,EN,NT30,30,0,0,0.000,0.000,1710,002,USD,"1,00000",,10/18/2017,,,,,,,,,,,,,,,,,,,,,,,0.00,,,1000000121,A17001,SAP,,,,,1,,,,,,,US,,,US,,0,,,,02,0.00,,,,,,0.00,,0.00,0.00,,,,,,,,,,,,,,USD,,,,,,,,,1/0/1900 0:00,,,,0,,,,,0,0,,,0,0,,,,0.000,,,,,,,,,,,,0,,,,,,,,,,,,,,,,,,,,,,,,,,,,0,0.00,,0.00,0.00,,,,,,,,
4500000051,1710,F,NB,,,9,10/18/2017,S4H_CO,10/18/2017 12:57,1,1,USSU-VSF01,EN,0002,14,30,0,2.000,0.000,1710,002,USD,"1,00000",,10/18/2017,,,,,,,,,,,,,,,,,,,,,,,0.00,,,1000000122,A17001,SAP,,,,,1,,,,,,,US,,,US,,0,,,,02,0.00,,,,,,0.00,,0.00,0.00,,,,,,,,,,,,,,USD,,,,,,,,,1/0/1900 0:00,,,,0,,,,,0,0,,,0,0,,,,0.000,,,,,,,,,,,,0,,,,,,,,,,,,,,,,,,,,,,,,,,,,0,0.00,,0.00,0.00,,,,,,,,
4500000052,1710,F,NB,,,9,10/18/2017,S4H_CO,10/18/2017 12:57,1,1,USSU-VSF01,EN,0002,14,30,0,2.000,0.000,1710,002,USD,"1,00000",,10/18/2017,,,,,,,,,,,,,,,,,,,,,,,0.00,,,1000000123,A17001,SAP,,,,,1,,,,,,,US,,,US,,0,,,,02,0.00,,,,,,0.00,,0.00,0.00,,,,,,,,,,,,,,USD,,,,,,,,,1/0/1900 0:00,,,,0,,,,,0,0,,,0,0,,,,0.000,,,,,,,,,,,,0,,,,,,,,,,,,,,,,,,,,,,,,,,,,0,0.00,,0.00,0.00,,,,,,,,
4500000053,1710,F,NB,,,9,10/18/2017,S4H_CO,10/18/2017 12:57,1,1,USSU-VSF01,EN,0002,14,30,0,2.000,0.000,1710,002,USD,"1,00000",,10/18/2017,,,,,,,,,,,,,,,,,,,,,,,0.00,,,1000000124,A17001,SAP,,,,,1,,,,,,,US,,,US,,0,,,,02,0.00,,,,,,0.00,,0.00,0.00,,,,,,,,,,,,,,USD,,,,,,,,,1/0/1900 0:00,,,,0,,,,,0,0,,,0,0,,,,0.000,,,,,,,,,,,,0,,,,,,,,,,,,,,,,,,,,,,,,,,,,0,0.00,,0.00,0.00,,,,,,,,
4500000054,1710,F,NB,,,9,10/19/2017,S4H_MM,10/19/2017 10:41,10,10,17300001,EN,0004,0,0,0,0.000,0.000,1710,002,USD,"1,00000",,10/19/2017,,,,,,,,,,,,,,,,,,,,,,,0.00,,,1000000125,A17001,SAP,,,,,1,,,,,,,US,,,US,,0,,,,02,0.00,,,,,,0.00,,0.00,0.00,,,,,,,,,,,,,,USD,,,,,,,,,1/0/1900 0:00,,,,0,,,,,0,0,,,0,0,,,,0.000,,,,,,,,,,,,0,,,,,,,,,,,,,,,,,,,,,,,,,,,,0,0.00,,0.00,0.00,,,,,,,,
4500000055,1710,F,NB,,,9,10/19/2017,S4H_MM,10/19/2017 12:08,10,10,17300001,EN,0004,0,0,0,0.000,0.000,1710,003,USD,"1,00000",,10/19/2017,,,,,,,,,,,,,,,,,,,,,,,0.00,,,1000000126,A17001,,17300001,,,,1,,,,,,,US,,,,,0,,,,02,0.00,,,,,,0.00,,0.00,0.00,,,,,,,,,,,,,,USD,,,,,,,,,1/0/1900 0:00,,,,0,,,,,0,0,,,0,0,,,,0.000,,,,,,,,,,,,0,,,,,,,,,,,,,,,,,,,,,,,,,,,,0,0.00,,0.00,0.00,,,,,,,,
4500000056,1710,F,NB,,,9,10/20/2017,S4H_MM,10/20/2017 9:54,10,10,EWM17-SU01,EN,0004,0,0,0,0.000,0.000,1710,002,USD,"1,00000",,10/20/2017,,,,,,,,,,,,,,,,,,,,,,,0.00,,,1000000140,A17001,SAP,EWM17-SU01,,,,1,,,,,,,US,,,US,,0,,,,02,0.00,,,,,,0.00,,0.00,0.00,,,,,,,,,,,,,,USD,,,,,,,,,1/0/1900 0:00,,,,0,,,,,0,0,,,0,0,,,,0.000,,,,,,,,,,,,0,,,,,,,,,,,,,,,,,,,,,,,,,,,,0,0.00,,0.00,0.00,,,,,,,,
4500000057,1710,F,NB,,,9,10/20/2017,S4H_MM,10/20/2017 10:01,10,10,EWM17-SU01,EN,0004,0,0,0,0.000,0.000,1710,002,USD,"1,00000",,10/20/2017,,,,,,,,,,,,,,,,,,,,,,,0.00,,,1000000141,A17001,SAP,EWM17-SU01,,,,1,,,,,,,US,,,US,,0,,,,02,0.00,,,,,,0.00,,0.00,0.00,,,,,,,,,,,,,,USD,,,,,,,,,1/0/1900 0:00,,,,0,,,,,0,0,,,0,0,,,,0.000,,,,,,,,,,,,0,,,,,,,,,,,,,,,,,,,,,,,,,,,,0,0.00,,0.00,0.00,,,,,,,,
4500000058,1710,F,NB,,,9,10/20/2017,S4H_MM,10/20/2017 10:03,10,20,EWM17-SU01,EN,0004,0,0,0,0.000,0.000,1710,002,USD,"1,00000",,10/20/2017,,,,,,,,,,,,,,,,,,,,,,,0.00,,,1000000142,A17001,SAP,EWM17-SU01,,,,1,,,,,,,US,,,US,,0,,,,02,0.00,,,,,,0.00,,0.00,0.00,,,,,,,,,,,,,,USD,,,,,,,,,1/0/1900 0:00,,,,0,,,,,0,0,,,0,0,,,,0.000,,,,,,,,,,,,0,,,,,,,,,,,,,,,,,,,,,,,,,,,,0,0.00,,0.00,0.00,,,,,,,,
4500000059,1710,F,NB,,,9,10/20/2017,S4H_MM,10/20/2017 10:06,10,30,EWM17-SU01,EN,0004,0,0,0,0.000,0.000,1710,002,USD,"1,00000",,10/20/2017,,,,,,,,,,,,,,,,,,,,,,,0.00,,,1000000143,A17001,SAP,EWM17-SU01,,,,1,,,,,,,US,,,US,,0,,,,02,0.00,,,,,,0.00,,0.00,0.00,,,,,,,,,,,,,,USD,,,,,,,,,1/0/1900 0:00,,,,0,,,,,0,0,,,0,0,,,,0.000,,,,,,,,,,,,0,,,,,,,,,,,,,,,,,,,,,,,,,,,,0,0.00,,0.00,0.00,,,,,,,,
4500000060,1710,F,NB,,,9,10/20/2017,S4H_MM,10/20/2017 10:08,10,10,EWM17-SU01,EN,0004,0,0,0,0.000,0.000,1710,002,USD,"1,00000",,10/20/2017,,,,,,,,,,,,,,,,,,,,,,,0.00,,,1000000144,A17001,SAP,EWM17-SU01,,,,1,,,,,,,US,,,US,,0,,,,02,0.00,,,,,,0.00,,0.00,0.00,,,,,,,,,,,,,,USD,,,,,,,,,1/0/1900 0:00,,,,0,,,,,0,0,,,0,0,,,,0.000,,,,,,,,,,,,0,,,,,,,,,,,,,,,,,,,,,,,,,,,,0,0.00,,0.00,0.00,,,,,,,,
4500000061,1710,F,NB,,,9,10/25/2017,S4H_MM,10/25/2017 10:54,10,10,17300001,EN,0004,0,0,0,0.000,0.000,1710,001,USD,"1,00000",,10/25/2017,,,,,,,,,,,,,,,,,,,,,,,0.00,,,1000000145,A17001,SAP,,,,,1,,S1,SH,G,X,,US,,,US,,0,,,,05,"4,940.00",,,,,,0.00,,0.00,0.00,,,,,,,,,,,,,,USD,,,,,,,,,1/0/1900 0:00,,,,0,,,,,0,0,,,0,0,,,,0.000,,,,,,,,,,,,0,,,,,,,,,,,,,,,,,,,,,,,,,,,,0,0.00,,0.00,0.00,,,,,,,,
4500000062,1710,F,NB,,,F,10/26/2017,S4H_PP,10/26/2017 7:32,10,10,17300002,EN,0004,0,0,0,0.000,0.000,1710,001,USD,"1,00000",,10/26/2017,,,,,,,,,,,,,,,,,,,,,,,0.00,,,1000000146,A17001,SAP,,,,,1,,,,,,,US,,,,,0,,,,02,0.00,,,,,,0.00,,0.00,0.00,,,,,,,,,,,,,,USD,,,,,,,,,1/0/1900 0:00,,,,0,,,,,0,0,,,0,0,,,,0.000,,,,,,,,,,,,0,,,,,,,,,,,,,,,,,,,,,,,,,,,,0,0.00,,0.00,0.00,,,,,,,,
4500000063,1710,F,NB,,,F,10/26/2017,S4H_PP,10/26/2017 7:34,10,10,17300002,EN,0004,0,0,0,0.000,0.000,1710,001,USD,"1,00000",,10/26/2017,,,,,,,,,,,,,,,,,,,,,,,0.00,,,1000000147,A17001,SAP,,,,,1,,,,,,,US,,,,,0,,,,02,0.00,,,,,,0.00,,0.00,0.00,,,,,,,,,,,,,,USD,,,,,,,,,1/0/1900 0:00,,,,0,,,,,0,0,,,0,0,,,,0.000,,,,,,,,,,,,0,,,,,,,,,,,,,,,,,,,,,,,,,,,,0,0.00,,0.00,0.00,,,,,,,,
4500000064,1710,F,NB,,,F,10/26/2017,S4H_PP,10/26/2017 9:57,10,10,17300002,EN,0004,0,0,0,0.000,0.000,1710,001,USD,"1,00000",,10/26/2017,,,,,,,,,,,,,,,,,,,,,,,0.00,,,1000000160,A17001,SAP,,,,,1,,,,,,,US,,,,,0,,,,02,0.00,,,,,,0.00,,0.00,0.00,,,,,,,,,,,,,,USD,,,,,,,,,1/0/1900 0:00,,,,0,,,,,0,0,,,0,0,,,,0.000,,,,,,,,,,,,0,,,,,,,,,,,,,,,,,,,,,,,,,,,,0,0.00,,0.00,0.00,,,,,,,,
4500000065,1710,F,NB,,,9,10/30/2017,S4H_PP,10/30/2017 13:56,10,10,17300001,EN,0004,0,0,0,0.000,0.000,1710,001,USD,"1,00000",,10/30/2017,,,,,,,,,,,,,,,,,,,,,,,0.00,,,1000000180,A17001,,17300001,,,,1,,,,,,,US,,,,,0,,,,02,0.00,,,,,,0.00,,0.00,0.00,,,,,,,,,,,,,,USD,,,,,,,,,1/0/1900 0:00,,,,0,,,,,0,0,,,0,0,,,,0.000,,,,,,,,,,,,0,,,,,,,,,,,,,,,,,,,,,,,,,,,,0,0.00,,0.00,0.00,,,,,,,,
4500000066,1710,F,NB,,,9,10/30/2017,S4H_PP,10/30/2017 14:04,10,10,17300001,EN,0004,0,0,0,0.000,0.000,1710,001,USD,"1,00000",,10/30/2017,,,,,,,,,,,,,,,,,,,,,,,0.00,,,1000000181,A17001,,17300001,,,,1,,,,,,,US,,,,,0,,,,02,0.00,,,,,,0.00,,0.00,0.00,,,,,,,,,,,,,,USD,,,,,,,,,1/0/1900 0:00,,,,0,,,,,0,0,,,0,0,,,,0.000,,,,,,,,,,,,0,,,,,,,,,,,,,,,,,,,,,,,,,,,,0,0.00,,0.00,0.00,,,,,,,,
4500000067,1710,F,NB,,,9,11/2/2017,S4H_PP,11/2/2017 12:37,10,10,17300001,EN,0004,0,0,0,0.000,0.000,1710,001,USD,"1,00000",,11/2/2017,,,,,,,,,,,,,,,,,,,,,,,0.00,,,1000000200,A17001,SAP,,,,,1,,,,,,,US,,,US,,0,,,,02,0.00,,,,,,0.00,,0.00,0.00,,,,,,,,,,,,,,USD,,,,,,,,,1/0/1900 0:00,,,,0,,,,,0,0,,,0,0,,,,0.000,,,,,,,,,,,,0,,,,,,,,,,,,,,,,,,,,,,,,,,,,0,0.00,,0.00,0.00,,,,,,,,
4500000068,1710,F,NB,,,9,11/3/2017,S4H_MM,11/3/2017 9:03,10,10,EWM17-SU01,EN,0004,0,0,0,0.000,0.000,1710,002,USD,"1,00000",,11/3/2017,,,,,,,,,,,,,,,,,,,,,,,0.00,,,1000000201,A17001,SAP,EWM17-SU01,,,,1,,,,,,,US,,,US,,0,,,,02,0.00,,,,,,0.00,,0.00,0.00,,,,,,,,,,,,,,USD,,,,,,,,,1/0/1900 0:00,,,,0,,,,,0,0,,,0,0,,,,0.000,,,,,,,,,,,,0,,,,,,,,,,,,,,,,,,,,,,,,,,,,0,0.00,,0.00,0.00,,,,,,,,
4500000069,1710,F,NB,,,9,11/3/2017,S4H_MM,11/3/2017 9:53,10,30,EWM17-SU01,EN,0004,0,0,0,0.000,0.000,1710,002,USD,"1,00000",,11/3/2017,,,,,,,,,,,,,,,,,,,,,,,0.00,,,1000000202,A17001,SAP,EWM17-SU01,,,,1,,,,,,,US,,,US,,0,,,,02,0.00,,,,,,0.00,,0.00,0.00,,,,,,,,,,,,,,USD,,,,,,,,,1/0/1900 0:00,,,,0,,,,,0,0,,,0,0,,,,0.000,,,,,,,,,,,,0,,,,,,,,,,,,,,,,,,,,,,,,,,,,0,0.00,,0.00,0.00,,,,,,,,
4500000070,1710,F,NB,,,9,11/9/2017,S4H_MM,11/9/2017 12:19,10,10,EWM17-SU01,EN,0004,0,0,0,0.000,0.000,1710,002,USD,"1,00000",,11/9/2017,,,,,,,,,,,,,,,,,,,,,,,0.00,,,1000000220,A17001,SAP,EWM17-SU01,,,,1,,,,,,,US,,,US,,0,,,,02,0.00,,,,,,0.00,,0.00,0.00,,,,,,,,,,,,,,USD,,,,,,,,,1/0/1900 0:00,,,,0,,,,,0,0,,,0,0,,,,0.000,,,,,,,,,,,,0,,,,,,,,,,,,,,,,,,,,,,,,,,,,0,0.00,,0.00,0.00,,,,,,,,
4500000071,1710,F,NB,,,9,11/9/2017,S4H_MM,11/9/2017 12:41,10,10,EWM17-SU01,EN,0004,0,0,0,0.000,0.000,1710,002,USD,"1,00000",,11/9/2017,,,,,,,,,,,,,,,,,,,,,,,0.00,,,1000000221,A17001,SAP,,,,,1,,,,,,,US,,,US,,0,,,,02,0.00,,,,,,0.00,,0.00,0.00,,,,,,,,,,,,,,USD,,,,,,,,,1/0/1900 0:00,,,,0,,,,,0,0,,,0,0,,,,0.000,,,,,,,,,,,,0,,,,,,,,,,,,,,,,,,,,,,,,,,,,0,0.00,,0.00,0.00,,,,,,,,
4500000072,1710,F,NB,,,9,11/13/2017,S4H_MM,11/14/2017 7:44,10,10,17300001,EN,0005,0,0,0,0.000,0.000,1710,001,USD,"1,00000",,11/13/2017,,,,,,,,,,,,,,,,,,,,,,,0.00,,,1000000240,A17001,SAP,,,,,1,,S1,SH,G,X,,US,,,US,,0,,,,05,"8,000.00",,,,,,0.00,,0.00,0.00,,,,,,,,,,,,,,USD,,,,,,,,,1/0/1900 0:00,,,,0,,,,,0,0,,,0,0,,,,0.000,,,,,,,,,,,,0,,,,,,,,,,,,,,,,,,,,,,,,,,,,0,0.00,,0.00,0.00,,,,,,,,
4500000073,1710,F,NB,,,9,11/17/2017,BPINST,11/17/2017 21:32,10,10,17300007,EN,0001,0,0,0,0.000,0.000,1710,001,USD,"1,00000",,11/17/2017,,,,,,,,,,,,,,,,,,,,,,,0.00,,,1000000260,A17001,SAP,17300007,,,,1,,,,,,,US,,,US,,0,,,,02,0.00,,,,,,0.00,,0.00,0.00,,,,,,,,,,,,,,USD,,,,,,,,,1/0/1900 0:00,,,,0,,,,,0,0,,,0,0,,,,0.000,,,,,,,,,,,,0,,,,,,,,,,,,,,,,,,,,,,,,,,,,0,0.00,,0.00,0.00,,,,,,,,
4500000074,1710,F,NB,,,9,11/20/2017,BPINST,11/20/2017 23:03,1,9,USSU-VSF04,EN,0002,14,30,0,2.000,0.000,1710,002,USD,"1,00000",,11/20/2017,,,,,,,,,,,,,,,,,,,,,,,0.00,,,1000000280,A17001,SAP,,,,,1,,,,,,,US,,,US,,0,,,,02,0.00,,,,,,0.00,,0.00,0.00,,,,,,,,,,,,,,USD,,,,,,,,,1/0/1900 0:00,,,,0,,,,,0,0,,,0,0,,,,0.000,,,,,,,,,,,,0,,,,,,,,,,,,,,,,,,,,,,,,,,,,0,0.00,,0.00,0.00,,,,,,,,
4500000075,1710,F,NB,,,9,11/20/2017,BPINST,11/20/2017 23:04,1,9,USSU-VSF02,EN,0002,14,30,0,2.000,0.000,1710,002,USD,"1,00000",,11/20/2017,,,,,,,,,,,,,,,,,,,,,,,0.00,,,1000000281,A17001,SAP,,,,,1,,,,,,,US,,,US,,0,,,,02,0.00,,,,,,0.00,,0.00,0.00,,,,,,,,,,,,,,USD,,,,,,,,,1/0/1900 0:00,,,,0,,,,,0,0,,,0,0,,,,0.000,,,,,,,,,,,,0,,,,,,,,,,,,,,,,,,,,,,,,,,,,0,0.00,,0.00,0.00,,,,,,,,
4500000076,1710,F,NB,,,9,11/20/2017,BPINST,11/20/2017 23:04,1,9,USSU-VSF01,EN,0002,14,30,0,2.000,0.000,1710,002,USD,"1,00000",,11/20/2017,,,,,,,,,,,,,,,,,,,,,,,0.00,,,1000000282,A17001,SAP,,,,,1,,,,,,,US,,,US,,0,,,,02,0.00,,,,,,0.00,,0.00,0.00,,,,,,,,,,,,,,USD,,,,,,,,,1/0/1900 0:00,,,,0,,,,,0,0,,,0,0,,,,0.000,,,,,,,,,,,,0,,,,,,,,,,,,,,,,,,,,,,,,,,,,0,0.00,,0.00,0.00,,,,,,,,
4500000077,1710,F,NB,,,9,11/20/2017,BPINST,11/20/2017 23:04,1,10,USSU-VSF05,EN,0002,14,30,0,2.000,0.000,1710,002,USD,"1,00000",,11/20/2017,,,,,,,,,,,,,,,,,,,,,,,0.00,,,1000000283,A17001,SAP,,,,,1,,,,,,,US,,,US,,0,,,,02,0.00,,,,,,0.00,,0.00,0.00,,,,,,,,,,,,,,USD,,,,,,,,,1/0/1900 0:00,,,,0,,,,,0,0,,,0,0,,,,0.000,,,,,,,,,,,,0,,,,,,,,,,,,,,,,,,,,,,,,,,,,0,0.00,,0.00,0.00,,,,,,,,
4500000078,1710,F,NB,,,9,11/20/2017,BPINST,11/20/2017 23:04,1,10,USSU-VSF06,EN,NT30,30,0,0,0.000,0.000,1710,002,USD,"1,00000",,11/20/2017,,,,,,,,,,,,,,,,,,,,,,,0.00,,,1000000284,A17001,SAP,,,,,1,,,,,,,US,,,US,,0,,,,02,0.00,,,,,,0.00,,0.00,0.00,,,,,,,,,,,,,,USD,,,,,,,,,1/0/1900 0:00,,,,0,,,,,0,0,,,0,0,,,,0.000,,,,,,,,,,,,0,,,,,,,,,,,,,,,,,,,,,,,,,,,,0,0.00,,0.00,0.00,,,,,,,,
4500000079,1710,F,NB,,,9,11/20/2017,BPINST,11/20/2017 23:04,1,10,USSU-VSF07,EN,NT30,30,0,0,0.000,0.000,1710,002,USD,"1,00000",,11/20/2017,,,,,,,,,,,,,,,,,,,,,,,0.00,,,1000000285,A17001,SAP,,,,,1,,,,,,,US,,,US,,0,,,,02,0.00,,,,,,0.00,,0.00,0.00,,,,,,,,,,,,,,USD,,,,,,,,,1/0/1900 0:00,,,,0,,,,,0,0,,,0,0,,,,0.000,,,,,,,,,,,,0,,,,,,,,,,,,,,,,,,,,,,,,,,,,0,0.00,,0.00,0.00,,,,,,,,
4500000080,1710,F,NB,,,9,11/20/2017,BPINST,11/20/2017 23:04,1,7,USSU-VSF08,EN,0002,14,30,0,2.000,0.000,1710,002,USD,"1,00000",,11/20/2017,,,,,,,,,,,,,,,,,,,,,,,0.00,,,1000000286,A17001,SAP,,,,,1,,,,,,,US,,,US,,0,,,,02,0.00,,,,,,0.00,,0.00,0.00,,,,,,,,,,,,,,USD,,,,,,,,,1/0/1900 0:00,,,,0,,,,,0,0,,,0,0,,,,0.000,,,,,,,,,,,,0,,,,,,,,,,,,,,,,,,,,,,,,,,,,0,0.00,,0.00,0.00,,,,,,,,
4500000081,1710,F,NB,,,9,11/20/2017,BPINST,11/20/2017 23:04,1,7,USSU-VSF08,EN,0002,14,30,0,2.000,0.000,1710,002,USD,"1,00000",,11/20/2017,,,,,,,,,,,,,,,,,,,,,,,0.00,,,1000000287,A17001,SAP,,,,,1,,,,,,,US,,,US,,0,,,,02,0.00,,,,,,0.00,,0.00,0.00,,,,,,,,,,,,,,USD,,,,,,,,,1/0/1900 0:00,,,,0,,,,,0,0,,,0,0,,,,0.000,,,,,,,,,,,,0,,,,,,,,,,,,,,,,,,,,,,,,,,,,0,0.00,,0.00,0.00,,,,,,,,
4500000082,1710,F,NB,,,9,11/20/2017,BPINST,11/20/2017 23:05,1,7,USSU-VSF06,EN,NT30,30,0,0,0.000,0.000,1710,002,USD,"1,00000",,11/20/2017,,,,,,,,,,,,,,,,,,,,,,,0.00,,,1000000288,A17001,SAP,,,,,1,,,,,,,US,,,US,,0,,,,02,0.00,,,,,,0.00,,0.00,0.00,,,,,,,,,,,,,,USD,,,,,,,,,1/0/1900 0:00,,,,0,,,,,0,0,,,0,0,,,,0.000,,,,,,,,,,,,0,,,,,,,,,,,,,,,,,,,,,,,,,,,,0,0.00,,0.00,0.00,,,,,,,,
4500000083,1710,F,NB,,,9,11/20/2017,BPINST,11/20/2017 23:05,1,1,USSU-VSF01,EN,0002,14,30,0,2.000,0.000,1710,002,USD,"1,00000",,11/20/2017,,,,,,,,,,,,,,,,,,,,,,,0.00,,,1000000289,A17001,SAP,,,,,1,,,,,,,US,,,US,,0,,,,02,0.00,,,,,,0.00,,0.00,0.00,,,,,,,,,,,,,,USD,,,,,,,,,1/0/1900 0:00,,,,0,,,,,0,0,,,0,0,,,,0.000,,,,,,,,,,,,0,,,,,,,,,,,,,,,,,,,,,,,,,,,,0,0.00,,0.00,0.00,,,,,,,,
4500000084,1710,F,NB,,,9,11/20/2017,BPINST,11/20/2017 23:05,1,1,USSU-VSF01,EN,0002,14,30,0,2.000,0.000,1710,002,USD,"1,00000",,11/20/2017,,,,,,,,,,,,,,,,,,,,,,,0.00,,,1000000290,A17001,SAP,,,,,1,,,,,,,US,,,US,,0,,,,02,0.00,,,,,,0.00,,0.00,0.00,,,,,,,,,,,,,,USD,,,,,,,,,1/0/1900 0:00,,,,0,,,,,0,0,,,0,0,,,,0.000,,,,,,,,,,,,0,,,,,,,,,,,,,,,,,,,,,,,,,,,,0,0.00,,0.00,0.00,,,,,,,,
4500000085,1710,F,NB,,,9,11/20/2017,BPINST,11/20/2017 23:05,1,1,USSU-VSF01,EN,0002,14,30,0,2.000,0.000,1710,002,USD,"1,00000",,11/20/2017,,,,,,,,,,,,,,,,,,,,,,,0.00,,,1000000291,A17001,SAP,,,,,1,,,,,,,US,,,US,,0,,,,02,0.00,,,,,,0.00,,0.00,0.00,,,,,,,,,,,,,,USD,,,,,,,,,1/0/1900 0:00,,,,0,,,,,0,0,,,0,0,,,,0.000,,,,,,,,,,,,0,,,,,,,,,,,,,,,,,,,,,,,,,,,,0,0.00,,0.00,0.00,,,,,,,,
4500000086,1710,F,NB,,,9,12/19/2017,BPINST,12/19/2017 18:54,1,9,USSU-VSF04,EN,0002,14,30,0,2.000,0.000,1710,002,USD,"1,00000",,12/19/2017,,,,,,,,,,,,,,,,,,,,,,,0.00,,,1000000300,A17001,SAP,,,,,1,,,,,,,US,,,US,,0,,,,02,0.00,,,,,,0.00,,0.00,0.00,,,,,,,,,,,,,,USD,,,,,,,,,1/0/1900 0:00,,,,0,,,,,0,0,,,0,0,,,,0.000,,,,,,,,,,,,0,,,,,,,,,,,,,,,,,,,,,,,,,,,,0,0.00,,0.00,0.00,,,,,,,,
4500000087,1710,F,NB,,,9,12/19/2017,BPINST,12/19/2017 18:55,1,9,USSU-VSF02,EN,0002,14,30,0,2.000,0.000,1710,002,USD,"1,00000",,12/19/2017,,,,,,,,,,,,,,,,,,,,,,,0.00,,,1000000301,A17001,SAP,,,,,1,,,,,,,US,,,US,,0,,,,02,0.00,,,,,,0.00,,0.00,0.00,,,,,,,,,,,,,,USD,,,,,,,,,1/0/1900 0:00,,,,0,,,,,0,0,,,0,0,,,,0.000,,,,,,,,,,,,0,,,,,,,,,,,,,,,,,,,,,,,,,,,,0,0.00,,0.00,0.00,,,,,,,,
4500000088,1710,F,NB,,,9,12/19/2017,BPINST,12/19/2017 18:55,1,9,USSU-VSF01,EN,0002,14,30,0,2.000,0.000,1710,002,USD,"1,00000",,12/19/2017,,,,,,,,,,,,,,,,,,,,,,,0.00,,,1000000302,A17001,SAP,,,,,1,,,,,,,US,,,US,,0,,,,02,0.00,,,,,,0.00,,0.00,0.00,,,,,,,,,,,,,,USD,,,,,,,,,1/0/1900 0:00,,,,0,,,,,0,0,,,0,0,,,,0.000,,,,,,,,,,,,0,,,,,,,,,,,,,,,,,,,,,,,,,,,,0,0.00,,0.00,0.00,,,,,,,,
4500000089,1710,F,NB,,,9,12/19/2017,BPINST,12/19/2017 18:55,1,10,USSU-VSF05,EN,0002,14,30,0,2.000,0.000,1710,002,USD,"1,00000",,12/19/2017,,,,,,,,,,,,,,,,,,,,,,,0.00,,,1000000303,A17001,SAP,,,,,1,,,,,,,US,,,US,,0,,,,02,0.00,,,,,,0.00,,0.00,0.00,,,,,,,,,,,,,,USD,,,,,,,,,1/0/1900 0:00,,,,0,,,,,0,0,,,0,0,,,,0.000,,,,,,,,,,,,0,,,,,,,,,,,,,,,,,,,,,,,,,,,,0,0.00,,0.00,0.00,,,,,,,,
4500000090,1710,F,NB,,,9,12/19/2017,BPINST,12/19/2017 18:55,1,10,USSU-VSF06,EN,NT30,30,0,0,0.000,0.000,1710,002,USD,"1,00000",,12/19/2017,,,,,,,,,,,,,,,,,,,,,,,0.00,,,1000000304,A17001,SAP,,,,,1,,,,,,,US,,,US,,0,,,,02,0.00,,,,,,0.00,,0.00,0.00,,,,,,,,,,,,,,USD,,,,,,,,,1/0/1900 0:00,,,,0,,,,,0,0,,,0,0,,,,0.000,,,,,,,,,,,,0,,,,,,,,,,,,,,,,,,,,,,,,,,,,0,0.00,,0.00,0.00,,,,,,,,
4500000091,1710,F,NB,,,9,12/19/2017,BPINST,12/19/2017 18:55,1,10,USSU-VSF07,EN,NT30,30,0,0,0.000,0.000,1710,002,USD,"1,00000",,12/19/2017,,,,,,,,,,,,,,,,,,,,,,,0.00,,,1000000305,A17001,SAP,,,,,1,,,,,,,US,,,US,,0,,,,02,0.00,,,,,,0.00,,0.00,0.00,,,,,,,,,,,,,,USD,,,,,,,,,1/0/1900 0:00,,,,0,,,,,0,0,,,0,0,,,,0.000,,,,,,,,,,,,0,,,,,,,,,,,,,,,,,,,,,,,,,,,,0,0.00,,0.00,0.00,,,,,,,,
4500000092,1710,F,NB,,,9,12/19/2017,BPINST,12/19/2017 18:55,1,7,USSU-VSF08,EN,0002,14,30,0,2.000,0.000,1710,002,USD,"1,00000",,12/19/2017,,,,,,,,,,,,,,,,,,,,,,,0.00,,,1000000306,A17001,SAP,,,,,1,,,,,,,US,,,US,,0,,,,02,0.00,,,,,,0.00,,0.00,0.00,,,,,,,,,,,,,,USD,,,,,,,,,1/0/1900 0:00,,,,0,,,,,0,0,,,0,0,,,,0.000,,,,,,,,,,,,0,,,,,,,,,,,,,,,,,,,,,,,,,,,,0,0.00,,0.00,0.00,,,,,,,,
4500000093,1710,F,NB,,,9,12/19/2017,BPINST,12/19/2017 18:55,1,7,USSU-VSF08,EN,0002,14,30,0,2.000,0.000,1710,002,USD,"1,00000",,12/19/2017,,,,,,,,,,,,,,,,,,,,,,,0.00,,,1000000307,A17001,SAP,,,,,1,,,,,,,US,,,US,,0,,,,02,0.00,,,,,,0.00,,0.00,0.00,,,,,,,,,,,,,,USD,,,,,,,,,1/0/1900 0:00,,,,0,,,,,0,0,,,0,0,,,,0.000,,,,,,,,,,,,0,,,,,,,,,,,,,,,,,,,,,,,,,,,,0,0.00,,0.00,0.00,,,,,,,,
4500000094,1710,F,NB,,,9,12/19/2017,BPINST,12/19/2017 18:55,1,7,USSU-VSF06,EN,NT30,30,0,0,0.000,0.000,1710,002,USD,"1,00000",,12/19/2017,,,,,,,,,,,,,,,,,,,,,,,0.00,,,1000000308,A17001,SAP,,,,,1,,,,,,,US,,,US,,0,,,,02,0.00,,,,,,0.00,,0.00,0.00,,,,,,,,,,,,,,USD,,,,,,,,,1/0/1900 0:00,,,,0,,,,,0,0,,,0,0,,,,0.000,,,,,,,,,,,,0,,,,,,,,,,,,,,,,,,,,,,,,,,,,0,0.00,,0.00,0.00,,,,,,,,
4500000095,1710,F,NB,,,9,12/19/2017,BPINST,12/19/2017 18:55,1,1,USSU-VSF01,EN,0002,14,30,0,2.000,0.000,1710,002,USD,"1,00000",,12/19/2017,,,,,,,,,,,,,,,,,,,,,,,0.00,,,1000000309,A17001,SAP,,,,,1,,,,,,,US,,,US,,0,,,,02,0.00,,,,,,0.00,,0.00,0.00,,,,,,,,,,,,,,USD,,,,,,,,,1/0/1900 0:00,,,,0,,,,,0,0,,,0,0,,,,0.000,,,,,,,,,,,,0,,,,,,,,,,,,,,,,,,,,,,,,,,,,0,0.00,,0.00,0.00,,,,,,,,
4500000096,1710,F,NB,,,9,12/19/2017,BPINST,12/19/2017 18:55,1,1,USSU-VSF01,EN,0002,14,30,0,2.000,0.000,1710,002,USD,"1,00000",,12/19/2017,,,,,,,,,,,,,,,,,,,,,,,0.00,,,1000000310,A17001,SAP,,,,,1,,,,,,,US,,,US,,0,,,,02,0.00,,,,,,0.00,,0.00,0.00,,,,,,,,,,,,,,USD,,,,,,,,,1/0/1900 0:00,,,,0,,,,,0,0,,,0,0,,,,0.000,,,,,,,,,,,,0,,,,,,,,,,,,,,,,,,,,,,,,,,,,0,0.00,,0.00,0.00,,,,,,,,
4500000097,1710,F,NB,,,9,12/19/2017,BPINST,12/19/2017 18:55,1,1,USSU-VSF01,EN,0002,14,30,0,2.000,0.000,1710,002,USD,"1,00000",,12/19/2017,,,,,,,,,,,,,,,,,,,,,,,0.00,,,1000000311,A17001,SAP,,,,,1,,,,,,,US,,,US,,0,,,,02,0.00,,,,,,0.00,,0.00,0.00,,,,,,,,,,,,,,USD,,,,,,,,,1/0/1900 0:00,,,,0,,,,,0,0,,,0,0,,,,0.000,,,,,,,,,,,,0,,,,,,,,,,,,,,,,,,,,,,,,,,,,0,0.00,,0.00,0.00,,,,,,,,
4500000098,1710,F,NB,,L,9,1/5/2018,BPINST,1/5/2018 21:29,1,9,USSU-VSF02,EN,0002,14,30,0,2.000,0.000,1710,002,USD,"1,00000",,1/5/2018,,,,,,,,,,,,,,,,,,,,,,,0.00,,,1000000312,A17001,SAP,,,,,1,,,,,,,US,,,US,,0,,,,02,0.00,,,,,,0.00,,0.00,0.00,,,,,,,,,,,,,,USD,,,,,,,,,1/0/1900 0:00,,,,0,,,,,0,0,,,0,0,,,,0.000,,,,,,,,,,,,0,,,,,,,,,,,,,,,,,,,,,,,,,,,,0,0.00,,0.00,0.00,,,,,,,,
4500000099,1710,F,NB,,L,9,1/5/2018,BPINST,1/5/2018 21:29,1,10,USSU-VSF05,EN,0002,14,30,0,2.000,0.000,1710,002,USD,"1,00000",,1/5/2018,,,,,,,,,,,,,,,,,,,,,,,0.00,,,1000000313,A17001,SAP,,,,,1,,,,,,,US,,,US,,0,,,,02,0.00,,,,,,0.00,,0.00,0.00,,,,,,,,,,,,,,USD,,,,,,,,,1/0/1900 0:00,,,,0,,,,,0,0,,,0,0,,,,0.000,,,,,,,,,,,,0,,,,,,,,,,,,,,,,,,,,,,,,,,,,0,0.00,,0.00,0.00,,,,,,,,
4500000100,1710,F,NB,,L,9,1/5/2018,BPINST,1/5/2018 21:29,1,10,USSU-VSF06,EN,NT30,30,0,0,0.000,0.000,1710,002,USD,"1,00000",,1/5/2018,,,,,,,,,,,,,,,,,,,,,,,0.00,,,1000000314,A17001,SAP,,,,,1,,,,,,,US,,,US,,0,,,,02,0.00,,,,,,0.00,,0.00,0.00,,,,,,,,,,,,,,USD,,,,,,,,,1/0/1900 0:00,,,,0,,,,,0,0,,,0,0,,,,0.000,,,,,,,,,,,,0,,,,,,,,,,,,,,,,,,,,,,,,,,,,0,0.00,,0.00,0.00,,,,,,,,
4500000101,1710,F,NB,,L,9,1/5/2018,BPINST,1/5/2018 21:29,1,7,USSU-VSF08,EN,0002,14,30,0,2.000,0.000,1710,002,USD,"1,00000",,1/5/2018,,,,,,,,,,,,,,,,,,,,,,,0.00,,,1000000315,A17001,SAP,,,,,1,,,,,,,US,,,US,,0,,,,02,0.00,,,,,,0.00,,0.00,0.00,,,,,,,,,,,,,,USD,,,,,,,,,1/0/1900 0:00,,,,0,,,,,0,0,,,0,0,,,,0.000,,,,,,,,,,,,0,,,,,,,,,,,,,,,,,,,,,,,,,,,,0,0.00,,0.00,0.00,,,,,,,,
4500000102,1710,F,NB,,L,9,1/5/2018,BPINST,1/5/2018 21:29,1,7,USSU-VSF06,EN,NT30,30,0,0,0.000,0.000,1710,002,USD,"1,00000",,1/5/2018,,,,,,,,,,,,,,,,,,,,,,,0.00,,,1000000316,A17001,SAP,,,,,1,,,,,,,US,,,US,,0,,,,02,0.00,,,,,,0.00,,0.00,0.00,,,,,,,,,,,,,,USD,,,,,,,,,1/0/1900 0:00,,,,0,,,,,0,0,,,0,0,,,,0.000,,,,,,,,,,,,0,,,,,,,,,,,,,,,,,,,,,,,,,,,,0,0.00,,0.00,0.00,,,,,,,,
4500000103,1710,F,NB,,,9,1/18/2018,BPINST,1/18/2018 17:16,1,9,USSU-VSF04,EN,0002,14,30,0,2.000,0.000,1710,002,USD,"1,00000",,1/18/2018,,,,,,,,,,,,,,,,,,,,,,,0.00,,,1000000320,A17001,SAP,,,,,1,,,,,,,US,,,US,,0,,,,02,0.00,,,,,,0.00,,0.00,0.00,,,,,,,,,,,,,,USD,,,,,,,,,1/0/1900 0:00,,,,0,,,,,0,0,,,0,0,,,,0.000,,,,,,,,,,,,0,,,,,,,,,,,,,,,,,,,,,,,,,,,,0,0.00,,0.00,0.00,,,,,,,,
4500000104,1710,F,NB,,,9,1/18/2018,BPINST,1/18/2018 17:16,1,9,USSU-VSF02,EN,0002,14,30,0,2.000,0.000,1710,002,USD,"1,00000",,1/18/2018,,,,,,,,,,,,,,,,,,,,,,,0.00,,,1000000321,A17001,SAP,,,,,1,,,,,,,US,,,US,,0,,,,02,0.00,,,,,,0.00,,0.00,0.00,,,,,,,,,,,,,,USD,,,,,,,,,1/0/1900 0:00,,,,0,,,,,0,0,,,0,0,,,,0.000,,,,,,,,,,,,0,,,,,,,,,,,,,,,,,,,,,,,,,,,,0,0.00,,0.00,0.00,,,,,,,,
4500000105,1710,F,NB,,,9,1/18/2018,BPINST,1/18/2018 17:16,1,9,USSU-VSF01,EN,0002,14,30,0,2.000,0.000,1710,002,USD,"1,00000",,1/18/2018,,,,,,,,,,,,,,,,,,,,,,,0.00,,,1000000322,A17001,SAP,,,,,1,,,,,,,US,,,US,,0,,,,02,0.00,,,,,,0.00,,0.00,0.00,,,,,,,,,,,,,,USD,,,,,,,,,1/0/1900 0:00,,,,0,,,,,0,0,,,0,0,,,,0.000,,,,,,,,,,,,0,,,,,,,,,,,,,,,,,,,,,,,,,,,,0,0.00,,0.00,0.00,,,,,,,,
4500000106,1710,F,NB,,,9,1/18/2018,BPINST,1/18/2018 17:16,1,10,USSU-VSF05,EN,0002,14,30,0,2.000,0.000,1710,002,USD,"1,00000",,1/18/2018,,,,,,,,,,,,,,,,,,,,,,,0.00,,,1000000323,A17001,SAP,,,,,1,,,,,,,US,,,US,,0,,,,02,0.00,,,,,,0.00,,0.00,0.00,,,,,,,,,,,,,,USD,,,,,,,,,1/0/1900 0:00,,,,0,,,,,0,0,,,0,0,,,,0.000,,,,,,,,,,,,0,,,,,,,,,,,,,,,,,,,,,,,,,,,,0,0.00,,0.00,0.00,,,,,,,,
4500000107,1710,F,NB,,,9,1/18/2018,BPINST,1/18/2018 17:16,1,10,USSU-VSF06,EN,NT30,30,0,0,0.000,0.000,1710,002,USD,"1,00000",,1/18/2018,,,,,,,,,,,,,,,,,,,,,,,0.00,,,1000000324,A17001,SAP,,,,,1,,,,,,,US,,,US,,0,,,,02,0.00,,,,,,0.00,,0.00,0.00,,,,,,,,,,,,,,USD,,,,,,,,,1/0/1900 0:00,,,,0,,,,,0,0,,,0,0,,,,0.000,,,,,,,,,,,,0,,,,,,,,,,,,,,,,,,,,,,,,,,,,0,0.00,,0.00,0.00,,,,,,,,
4500000108,1710,F,NB,,,9,1/18/2018,BPINST,1/18/2018 17:16,1,10,USSU-VSF07,EN,NT30,30,0,0,0.000,0.000,1710,002,USD,"1,00000",,1/18/2018,,,,,,,,,,,,,,,,,,,,,,,0.00,,,1000000325,A17001,SAP,,,,,1,,,,,,,US,,,US,,0,,,,02,0.00,,,,,,0.00,,0.00,0.00,,,,,,,,,,,,,,USD,,,,,,,,,1/0/1900 0:00,,,,0,,,,,0,0,,,0,0,,,,0.000,,,,,,,,,,,,0,,,,,,,,,,,,,,,,,,,,,,,,,,,,0,0.00,,0.00,0.00,,,,,,,,
4500000109,1710,F,NB,,,9,1/18/2018,BPINST,1/18/2018 17:16,1,7,USSU-VSF08,EN,0002,14,30,0,2.000,0.000,1710,002,USD,"1,00000",,1/18/2018,,,,,,,,,,,,,,,,,,,,,,,0.00,,,1000000326,A17001,SAP,,,,,1,,,,,,,US,,,US,,0,,,,02,0.00,,,,,,0.00,,0.00,0.00,,,,,,,,,,,,,,USD,,,,,,,,,1/0/1900 0:00,,,,0,,,,,0,0,,,0,0,,,,0.000,,,,,,,,,,,,0,,,,,,,,,,,,,,,,,,,,,,,,,,,,0,0.00,,0.00,0.00,,,,,,,,
4500000110,1710,F,NB,,,9,1/18/2018,BPINST,1/18/2018 17:16,1,7,USSU-VSF08,EN,0002,14,30,0,2.000,0.000,1710,002,USD,"1,00000",,1/18/2018,,,,,,,,,,,,,,,,,,,,,,,0.00,,,1000000327,A17001,SAP,,,,,1,,,,,,,US,,,US,,0,,,,02,0.00,,,,,,0.00,,0.00,0.00,,,,,,,,,,,,,,USD,,,,,,,,,1/0/1900 0:00,,,,0,,,,,0,0,,,0,0,,,,0.000,,,,,,,,,,,,0,,,,,,,,,,,,,,,,,,,,,,,,,,,,0,0.00,,0.00,0.00,,,,,,,,
4500000111,1710,F,NB,,,9,1/18/2018,BPINST,1/18/2018 17:16,1,7,USSU-VSF06,EN,NT30,30,0,0,0.000,0.000,1710,002,USD,"1,00000",,1/18/2018,,,,,,,,,,,,,,,,,,,,,,,0.00,,,1000000328,A17001,SAP,,,,,1,,,,,,,US,,,US,,0,,,,02,0.00,,,,,,0.00,,0.00,0.00,,,,,,,,,,,,,,USD,,,,,,,,,1/0/1900 0:00,,,,0,,,,,0,0,,,0,0,,,,0.000,,,,,,,,,,,,0,,,,,,,,,,,,,,,,,,,,,,,,,,,,0,0.00,,0.00,0.00,,,,,,,,
4500000112,1710,F,NB,,,9,1/18/2018,BPINST,1/18/2018 17:16,1,1,USSU-VSF01,EN,0002,14,30,0,2.000,0.000,1710,002,USD,"1,00000",,1/18/2018,,,,,,,,,,,,,,,,,,,,,,,0.00,,,1000000329,A17001,SAP,,,,,1,,,,,,,US,,,US,,0,,,,02,0.00,,,,,,0.00,,0.00,0.00,,,,,,,,,,,,,,USD,,,,,,,,,1/0/1900 0:00,,,,0,,,,,0,0,,,0,0,,,,0.000,,,,,,,,,,,,0,,,,,,,,,,,,,,,,,,,,,,,,,,,,0,0.00,,0.00,0.00,,,,,,,,
4500000113,1710,F,NB,,,9,1/18/2018,BPINST,1/18/2018 17:16,1,1,USSU-VSF01,EN,0002,14,30,0,2.000,0.000,1710,002,USD,"1,00000",,1/18/2018,,,,,,,,,,,,,,,,,,,,,,,0.00,,,1000000330,A17001,SAP,,,,,1,,,,,,,US,,,US,,0,,,,02,0.00,,,,,,0.00,,0.00,0.00,,,,,,,,,,,,,,USD,,,,,,,,,1/0/1900 0:00,,,,0,,,,,0,0,,,0,0,,,,0.000,,,,,,,,,,,,0,,,,,,,,,,,,,,,,,,,,,,,,,,,,0,0.00,,0.00,0.00,,,,,,,,
4500000114,1710,F,NB,,,9,1/18/2018,BPINST,1/18/2018 17:16,1,1,USSU-VSF01,EN,0002,14,30,0,2.000,0.000,1710,002,USD,"1,00000",,1/18/2018,,,,,,,,,,,,,,,,,,,,,,,0.00,,,1000000331,A17001,SAP,,,,,1,,,,,,,US,,,US,,0,,,,02,0.00,,,,,,0.00,,0.00,0.00,,,,,,,,,,,,,,USD,,,,,,,,,1/0/1900 0:00,,,,0,,,,,0,0,,,0,0,,,,0.000,,,,,,,,,,,,0,,,,,,,,,,,,,,,,,,,,,,,,,,,,0,0.00,,0.00,0.00,,,,,,,,
4500000115,1710,F,NB,,,9,3/12/2018,BPINST,3/12/2018 17:08,1,9,USSU-VSF04,EN,0002,14,30,0,2.000,0.000,1710,002,USD,"1,00000",,3/12/2018,,,,,,,,,,,,,,,,,,,,,,,0.00,,,1000000340,A17001,SAP,,,,,1,,,,,,,US,,,US,,0,,,,02,0.00,,,,,,0.00,,0.00,0.00,,,,,,,,,,,,,,USD,,,,,,,,,1/0/1900 0:00,,,,0,,,,,0,0,,,0,0,,,,0.000,,,,,,,,,,,,0,,,,,,,,,,,,,,,,,,,,,,,,,,,,0,0.00,,0.00,0.00,,,,,,,,
4500000116,1710,F,NB,,,9,3/12/2018,BPINST,3/12/2018 17:08,1,9,USSU-VSF02,EN,0002,14,30,0,2.000,0.000,1710,002,USD,"1,00000",,3/12/2018,,,,,,,,,,,,,,,,,,,,,,,0.00,,,1000000341,A17001,SAP,,,,,1,,,,,,,US,,,US,,0,,,,02,0.00,,,,,,0.00,,0.00,0.00,,,,,,,,,,,,,,USD,,,,,,,,,1/0/1900 0:00,,,,0,,,,,0,0,,,0,0,,,,0.000,,,,,,,,,,,,0,,,,,,,,,,,,,,,,,,,,,,,,,,,,0,0.00,,0.00,0.00,,,,,,,,
4500000117,1710,F,NB,,,9,3/12/2018,BPINST,3/12/2018 17:08,1,9,USSU-VSF01,EN,0002,14,30,0,2.000,0.000,1710,002,USD,"1,00000",,3/12/2018,,,,,,,,,,,,,,,,,,,,,,,0.00,,,1000000342,A17001,SAP,,,,,1,,,,,,,US,,,US,,0,,,,02,0.00,,,,,,0.00,,0.00,0.00,,,,,,,,,,,,,,USD,,,,,,,,,1/0/1900 0:00,,,,0,,,,,0,0,,,0,0,,,,0.000,,,,,,,,,,,,0,,,,,,,,,,,,,,,,,,,,,,,,,,,,0,0.00,,0.00,0.00,,,,,,,,
4500000118,1710,F,NB,,,9,3/12/2018,BPINST,3/12/2018 17:09,1,10,USSU-VSF05,EN,0002,14,30,0,2.000,0.000,1710,002,USD,"1,00000",,3/12/2018,,,,,,,,,,,,,,,,,,,,,,,0.00,,,1000000343,A17001,SAP,,,,,1,,,,,,,US,,,US,,0,,,,02,0.00,,,,,,0.00,,0.00,0.00,,,,,,,,,,,,,,USD,,,,,,,,,1/0/1900 0:00,,,,0,,,,,0,0,,,0,0,,,,0.000,,,,,,,,,,,,0,,,,,,,,,,,,,,,,,,,,,,,,,,,,0,0.00,,0.00,0.00,,,,,,,,
4500000119,1710,F,NB,,,9,3/12/2018,BPINST,3/12/2018 17:09,1,10,USSU-VSF06,EN,NT30,30,0,0,0.000,0.000,1710,002,USD,"1,00000",,3/12/2018,,,,,,,,,,,,,,,,,,,,,,,0.00,,,1000000344,A17001,SAP,,,,,1,,,,,,,US,,,US,,0,,,,02,0.00,,,,,,0.00,,0.00,0.00,,,,,,,,,,,,,,USD,,,,,,,,,1/0/1900 0:00,,,,0,,,,,0,0,,,0,0,,,,0.000,,,,,,,,,,,,0,,,,,,,,,,,,,,,,,,,,,,,,,,,,0,0.00,,0.00,0.00,,,,,,,,
4500000120,1710,F,NB,,,9,3/12/2018,BPINST,3/12/2018 17:09,1,10,USSU-VSF07,EN,NT30,30,0,0,0.000,0.000,1710,002,USD,"1,00000",,3/12/2018,,,,,,,,,,,,,,,,,,,,,,,0.00,,,1000000345,A17001,SAP,,,,,1,,,,,,,US,,,US,,0,,,,02,0.00,,,,,,0.00,,0.00,0.00,,,,,,,,,,,,,,USD,,,,,,,,,1/0/1900 0:00,,,,0,,,,,0,0,,,0,0,,,,0.000,,,,,,,,,,,,0,,,,,,,,,,,,,,,,,,,,,,,,,,,,0,0.00,,0.00,0.00,,,,,,,,
4500000121,1710,F,NB,,,9,3/12/2018,BPINST,3/12/2018 17:09,1,7,USSU-VSF08,EN,0002,14,30,0,2.000,0.000,1710,002,USD,"1,00000",,3/12/2018,,,,,,,,,,,,,,,,,,,,,,,0.00,,,1000000346,A17001,SAP,,,,,1,,,,,,,US,,,US,,0,,,,02,0.00,,,,,,0.00,,0.00,0.00,,,,,,,,,,,,,,USD,,,,,,,,,1/0/1900 0:00,,,,0,,,,,0,0,,,0,0,,,,0.000,,,,,,,,,,,,0,,,,,,,,,,,,,,,,,,,,,,,,,,,,0,0.00,,0.00,0.00,,,,,,,,
4500000122,1710,F,NB,,,9,3/12/2018,BPINST,3/12/2018 17:09,1,7,USSU-VSF08,EN,0002,14,30,0,2.000,0.000,1710,002,USD,"1,00000",,3/12/2018,,,,,,,,,,,,,,,,,,,,,,,0.00,,,1000000347,A17001,SAP,,,,,1,,,,,,,US,,,US,,0,,,,02,0.00,,,,,,0.00,,0.00,0.00,,,,,,,,,,,,,,USD,,,,,,,,,1/0/1900 0:00,,,,0,,,,,0,0,,,0,0,,,,0.000,,,,,,,,,,,,0,,,,,,,,,,,,,,,,,,,,,,,,,,,,0,0.00,,0.00,0.00,,,,,,,,
4500000123,1710,F,NB,,,9,3/12/2018,BPINST,3/12/2018 17:09,1,7,USSU-VSF06,EN,NT30,30,0,0,0.000,0.000,1710,002,USD,"1,00000",,3/12/2018,,,,,,,,,,,,,,,,,,,,,,,0.00,,,1000000348,A17001,SAP,,,,,1,,,,,,,US,,,US,,0,,,,02,0.00,,,,,,0.00,,0.00,0.00,,,,,,,,,,,,,,USD,,,,,,,,,1/0/1900 0:00,,,,0,,,,,0,0,,,0,0,,,,0.000,,,,,,,,,,,,0,,,,,,,,,,,,,,,,,,,,,,,,,,,,0,0.00,,0.00,0.00,,,,,,,,
4500000124,1710,F,NB,,,9,3/12/2018,BPINST,3/12/2018 17:09,1,1,USSU-VSF01,EN,0002,14,30,0,2.000,0.000,1710,002,USD,"1,00000",,3/12/2018,,,,,,,,,,,,,,,,,,,,,,,0.00,,,1000000349,A17001,SAP,,,,,1,,,,,,,US,,,US,,0,,,,02,0.00,,,,,,0.00,,0.00,0.00,,,,,,,,,,,,,,USD,,,,,,,,,1/0/1900 0:00,,,,0,,,,,0,0,,,0,0,,,,0.000,,,,,,,,,,,,0,,,,,,,,,,,,,,,,,,,,,,,,,,,,0,0.00,,0.00,0.00,,,,,,,,
4500000125,1710,F,NB,,,9,3/12/2018,BPINST,3/12/2018 17:09,1,1,USSU-VSF01,EN,0002,14,30,0,2.000,0.000,1710,002,USD,"1,00000",,3/12/2018,,,,,,,,,,,,,,,,,,,,,,,0.00,,,1000000350,A17001,SAP,,,,,1,,,,,,,US,,,US,,0,,,,02,0.00,,,,,,0.00,,0.00,0.00,,,,,,,,,,,,,,USD,,,,,,,,,1/0/1900 0:00,,,,0,,,,,0,0,,,0,0,,,,0.000,,,,,,,,,,,,0,,,,,,,,,,,,,,,,,,,,,,,,,,,,0,0.00,,0.00,0.00,,,,,,,,
4500000126,1710,F,NB,,,9,3/12/2018,BPINST,3/12/2018 17:09,1,1,USSU-VSF01,EN,0002,14,30,0,2.000,0.000,1710,002,USD,"1,00000",,3/12/2018,,,,,,,,,,,,,,,,,,,,,,,0.00,,,1000000351,A17001,SAP,,,,,1,,,,,,,US,,,US,,0,,,,02,0.00,,,,,,0.00,,0.00,0.00,,,,,,,,,,,,,,USD,,,,,,,,,1/0/1900 0:00,,,,0,,,,,0,0,,,0,0,,,,0.000,,,,,,,,,,,,0,,,,,,,,,,,,,,,,,,,,,,,,,,,,0,0.00,,0.00,0.00,,,,,,,,
4500000127,1710,F,NB,,,9,3/12/2018,S4H_MM,3/12/2018 19:34,10,10,EWM17-SU01,EN,0004,0,0,0,0.000,0.000,1710,002,USD,"1,00000",,3/12/2018,,,,,,,,,,,,,,,,,,,,,,,0.00,,,1000000352,A17001,SAP,,,,,1,,,,,,,US,,,US,,0,,,,02,0.00,,,,,,0.00,,0.00,0.00,,,,,,,,,,,,,,USD,,,,,,,,,1/0/1900 0:00,,,,0,,,,,0,0,,,0,0,,,,0.000,,,,,,,,,,,,0,,,,,,,,,,,,,,,,,,,,,,,,,,,,0,0.00,,0.00,0.00,,,,,,,,
4500000128,1710,F,NB,,,9,3/12/2018,S4H_MM,3/12/2018 19:35,10,10,EWM17-SU01,EN,0004,0,0,0,0.000,0.000,1710,002,USD,"1,00000",,3/12/2018,,,,,,,,,,,,,,,,,,,,,,,0.00,,,1000000353,A17001,SAP,,,,,1,,,,,,,US,,,US,,0,,,,02,0.00,,,,,,0.00,,0.00,0.00,,,,,,,,,,,,,,USD,,,,,,,,,1/0/1900 0:00,,,,0,,,,,0,0,,,0,0,,,,0.000,,,,,,,,,,,,0,,,,,,,,,,,,,,,,,,,,,,,,,,,,0,0.00,,0.00,0.00,,,,,,,,
4500000129,1710,F,NB,,,9,3/12/2018,S4H_MM,3/12/2018 19:36,10,20,EWM17-SU01,EN,0004,0,0,0,0.000,0.000,1710,002,USD,"1,00000",,3/12/2018,,,,,,,,,,,,,,,,,,,,,,,0.00,,,1000000354,A17001,SAP,EWM17-SU01,,,,1,,,,,,,US,,,US,,0,,,,02,0.00,,,,,,0.00,,0.00,0.00,,,,,,,,,,,,,,USD,,,,,,,,,1/0/1900 0:00,,,,0,,,,,0,0,,,0,0,,,,0.000,,,,,,,,,,,,0,,,,,,,,,,,,,,,,,,,,,,,,,,,,0,0.00,,0.00,0.00,,,,,,,,
4500000130,1710,F,NB,,,9,3/12/2018,S4H_MM,3/12/2018 19:37,10,30,EWM17-SU01,EN,0004,0,0,0,0.000,0.000,1710,002,USD,"1,00000",,3/12/2018,,,,,,,,,,,,,,,,,,,,,,,0.00,,,1000000355,A17001,SAP,EWM17-SU01,,,,1,,,,,,,US,,,US,,0,,,,02,0.00,,,,,,0.00,,0.00,0.00,,,,,,,,,,,,,,USD,,,,,,,,,1/0/1900 0:00,,,,0,,,,,0,0,,,0,0,,,,0.000,,,,,,,,,,,,0,,,,,,,,,,,,,,,,,,,,,,,,,,,,0,0.00,,0.00,0.00,,,,,,,,
4500000131,1710,F,NB,,,9,3/12/2018,S4H_EWM,3/12/2018 20:36,10,10,EWM17-SU01,EN,0004,0,0,0,0.000,0.000,1710,002,USD,"1,00000",,3/12/2018,,,,,,,,,,,,,,,,,,,,,,,0.00,,,1000000356,A17001,SAP,EWM17-SU01,,,,1,,,,,,,US,,,US,,0,,,,02,0.00,,,,,,0.00,,0.00,0.00,,,,,,,,,,,,,,USD,,,,,,,,,1/0/1900 0:00,,,,0,,,,,0,0,,,0,0,,,,0.000,,,,,,,,,,,,0,,,,,,,,,,,,,,,,,,,,,,,,,,,,0,0.00,,0.00,0.00,,,,,,,,
4500000132,1710,F,NB,,,9,3/13/2018,S4H_DDR_DEM,3/13/2018 2:56,10,10,17300001,EN,0004,0,0,0,0.000,0.000,1710,001,USD,"1,00000",,3/12/2018,,,,,,,,,,,,,,,,,,,,,,,0.00,,,1000000357,A17001,,17300001,,,,1,,,,,,,US,,,,,0,,,,02,0.00,,,,,,0.00,,0.00,0.00,,,,,,,,,,,,,,USD,,,,,,,,,1/0/1900 0:00,,,,0,,,,,0,0,,,0,0,,,,0.000,,,,,,,,,,,,0,,,,,,,,,,,,,,,,,,,,,,,,,,,,0,0.00,,0.00,0.00,,,,,,,,
4500000133,1710,F,NB,,,9,3/13/2018,S4H_DDR_DEM,3/13/2018 2:58,10,10,17300001,EN,0004,0,0,0,0.000,0.000,1710,001,USD,"1,00000",,3/12/2018,,,,,,,,,,,,,,,,,,,,,,,0.00,,,1000000358,A17001,,17300001,,,,1,,,,,,,US,,,,,0,,,,02,0.00,,,,,,0.00,,0.00,0.00,,,,,,,,,,,,,,USD,,,,,,,,,1/0/1900 0:00,,,,0,,,,,0,0,,,0,0,,,,0.000,,,,,,,,,,,,0,,,,,,,,,,,,,,,,,,,,,,,,,,,,0,0.00,,0.00,0.00,,,,,,,,
4500000134,1710,F,NB,,,9,3/13/2018,BPINST,3/13/2018 21:27,10,10,17300007,EN,0001,0,0,0,0.000,0.000,1710,001,USD,"1,00000",,3/13/2018,,,,,,,,,,,,,,,,,,,,,,,0.00,,,1000000359,A17001,SAP,17300007,,,,1,,,,,,,US,,,US,,0,,,,02,0.00,,,,,,0.00,,0.00,0.00,,,,,,,,,,,,,,USD,,,,,,,,,1/0/1900 0:00,,,,0,,,,,0,0,,,0,0,,,,0.000,,,,,,,,,,,,0,,,,,,,,,,,,,,,,,,,,,,,,,,,,0,0.00,,0.00,0.00,,,,,,,,
4500000135,1710,F,NB,,,9,3/14/2018,S4H_MM,3/14/2018 20:11,10,30,EWM17-SU01,EN,0004,0,0,0,0.000,0.000,1710,001,USD,"1,00000",,3/14/2018,,,,,,,,,,,,,,,,,,,,,,,0.00,,,1000000360,A17001,SAP,EWM17-SU01,,,,1,,,,,,,US,,,US,,0,,,,02,0.00,,,,,,0.00,,0.00,0.00,,,,,,,,,,,,,,USD,,,,,,,,,1/0/1900 0:00,,,,0,,,,,0,0,,,0,0,,,,0.000,,,,,,,,,,,,0,,,,,,,,,,,,,,,,,,,,,,,,,,,,0,0.00,,0.00,0.00,,,,,,,,
4500000136,1710,F,NB,,,9,3/15/2018,S4H_MM_DEM,9/3/2025 17:14,10,10,17300001,EN,0004,0,0,0,0.000,0.000,1710,001,USD,"1,00000",,3/15/2018,,,,,,,,,,,,,,,,,,,,,,,0.00,,,1000000361,A17001,SAP,,,,,1,,,,,,,US,,,US,,0,,,,02,0.00,,,,,,0.00,,0.00,0.00,,,,,,,,,,,,,,USD,,,,,,,,,1/0/1900 0:00,,,,0,,,,,0,0,,,0,0,,,,0.000,,,,,,,,,,,,0,,,,,,,,,,,,,,,,,,,,,,,,,,,,0,0.00,,0.00,0.00,,,,,,,,
4500000137,1710,F,NB,,,9,3/15/2018,S4H_EWM,3/15/2018 18:05,10,10,EWM17-SU01,EN,0004,0,0,0,0.000,0.000,1710,002,USD,"1,00000",,3/15/2018,,,,,,,,,,,,,,,,,,,,,,,0.00,,,1000000362,A17001,SAP,EWM17-SU01,,,,1,,,,,,,US,,,US,,0,,,,02,0.00,,,,,,0.00,,0.00,0.00,,,,,,,,,,,,,,USD,,,,,,,,,1/0/1900 0:00,,,,0,,,,,0,0,,,0,0,,,,0.000,,,,,,,,,,,,0,,,,,,,,,,,,,,,,,,,,,,,,,,,,0,0.00,,0.00,0.00,,,,,,,,
4500000138,1710,F,NB,,,9,3/16/2018,S4H_EWM,3/16/2018 8:12,10,10,EWM17-SU01,EN,0004,0,0,0,0.000,0.000,1710,002,USD,"1,00000",,3/16/2018,,,,,,,,,,,,,,,,,,,,,,,0.00,,,1000000363,A17001,SAP,EWM17-SU01,,,,1,,,,,,,US,,,US,,0,,,,02,0.00,,,,,,0.00,,0.00,0.00,,,,,,,,,,,,,,USD,,,,,,,,,1/0/1900 0:00,,,,0,,,,,0,0,,,0,0,,,,0.000,,,,,,,,,,,,0,,,,,,,,,,,,,,,,,,,,,,,,,,,,0,0.00,,0.00,0.00,,,,,,,,
4500000139,1710,F,NB,,,9,3/16/2018,S4H_PP,3/16/2018 13:59,10,10,17300001,EN,0004,0,0,0,0.000,0.000,1710,001,USD,"1,00000",,3/16/2018,,,,,,,,,,,,,,,,,,,,,,,0.00,,,1000000364,A17001,SAP,,,,,1,,,,,,,US,,,US,,0,,,,02,0.00,,,,,,0.00,,0.00,0.00,,,,,,,,,,,,,,USD,,,,,,,,,1/0/1900 0:00,,,,0,,,,,0,0,,,0,0,,,,0.000,,,,,,,,,,,,0,,,,,,,,,,,,,,,,,,,,,,,,,,,,0,0.00,,0.00,0.00,,,,,,,,
4500000140,1710,F,NB,,,9,3/16/2018,S4H_PP,3/16/2018 22:52,10,10,17300001,EN,0004,0,0,0,0.000,0.000,1710,001,USD,"1,00000",,3/16/2018,,,,,,,,,,,,,,,,,,,,,,,0.00,,,1000000365,A17001,SAP,,,,,1,,,,,,,US,,,US,,0,,,,02,0.00,,,,,,0.00,,0.00,0.00,,,,,,,,,,,,,,USD,,,,,,,,,1/0/1900 0:00,,,,0,,,,,0,0,,,0,0,,,,0.000,,,,,,,,,,,,0,,,,,,,,,,,,,,,,,,,,,,,,,,,,0,0.00,,0.00,0.00,,,,,,,,
4500000141,1710,F,NB,,,9,4/5/2018,BPINST,4/5/2018 19:38,1,9,USSU-VSF04,EN,0002,14,30,0,2.000,0.000,1710,002,USD,"1,00000",,4/5/2018,,,,,,,,,,,,,,,,,,,,,,,0.00,,,1000000380,A17001,SAP,,,,,1,,,,,,,US,,,US,,0,,,,02,0.00,,,,,,0.00,,0.00,0.00,,,,,,,,,,,,,,USD,,,,,,,,,1/0/1900 0:00,,,,0,,,,,0,0,,,0,0,,,,0.000,,,,,,,,,,,,0,,,,,,,,,,,,,,,,,,,,,,,,,,,,0,0.00,,0.00,0.00,,,,,,,,
4500000142,1710,F,NB,,,9,4/5/2018,BPINST,4/5/2018 19:39,1,9,USSU-VSF02,EN,0002,14,30,0,2.000,0.000,1710,002,USD,"1,00000",,4/5/2018,,,,,,,,,,,,,,,,,,,,,,,0.00,,,1000000381,A17001,SAP,,,,,1,,,,,,,US,,,US,,0,,,,02,0.00,,,,,,0.00,,0.00,0.00,,,,,,,,,,,,,,USD,,,,,,,,,1/0/1900 0:00,,,,0,,,,,0,0,,,0,0,,,,0.000,,,,,,,,,,,,0,,,,,,,,,,,,,,,,,,,,,,,,,,,,0,0.00,,0.00,0.00,,,,,,,,
4500000143,1710,F,NB,,,9,4/5/2018,BPINST,4/5/2018 19:39,1,9,USSU-VSF01,EN,0002,14,30,0,2.000,0.000,1710,002,USD,"1,00000",,4/5/2018,,,,,,,,,,,,,,,,,,,,,,,0.00,,,1000000382,A17001,SAP,,,,,1,,,,,,,US,,,US,,0,,,,02,0.00,,,,,,0.00,,0.00,0.00,,,,,,,,,,,,,,USD,,,,,,,,,1/0/1900 0:00,,,,0,,,,,0,0,,,0,0,,,,0.000,,,,,,,,,,,,0,,,,,,,,,,,,,,,,,,,,,,,,,,,,0,0.00,,0.00,0.00,,,,,,,,
4500000144,1710,F,NB,,,9,4/5/2018,BPINST,4/5/2018 19:39,1,10,USSU-VSF05,EN,0002,14,30,0,2.000,0.000,1710,002,USD,"1,00000",,4/5/2018,,,,,,,,,,,,,,,,,,,,,,,0.00,,,1000000383,A17001,SAP,,,,,1,,,,,,,US,,,US,,0,,,,02,0.00,,,,,,0.00,,0.00,0.00,,,,,,,,,,,,,,USD,,,,,,,,,1/0/1900 0:00,,,,0,,,,,0,0,,,0,0,,,,0.000,,,,,,,,,,,,0,,,,,,,,,,,,,,,,,,,,,,,,,,,,0,0.00,,0.00,0.00,,,,,,,,
4500000145,1710,F,NB,,,9,4/5/2018,BPINST,4/5/2018 19:39,1,10,USSU-VSF06,EN,NT30,30,0,0,0.000,0.000,1710,002,USD,"1,00000",,4/5/2018,,,,,,,,,,,,,,,,,,,,,,,0.00,,,1000000384,A17001,SAP,,,,,1,,,,,,,US,,,US,,0,,,,02,0.00,,,,,,0.00,,0.00,0.00,,,,,,,,,,,,,,USD,,,,,,,,,1/0/1900 0:00,,,,0,,,,,0,0,,,0,0,,,,0.000,,,,,,,,,,,,0,,,,,,,,,,,,,,,,,,,,,,,,,,,,0,0.00,,0.00,0.00,,,,,,,,
4500000146,1710,F,NB,,,9,4/5/2018,BPINST,4/5/2018 19:39,1,10,USSU-VSF07,EN,NT30,30,0,0,0.000,0.000,1710,002,USD,"1,00000",,4/5/2018,,,,,,,,,,,,,,,,,,,,,,,0.00,,,1000000385,A17001,SAP,,,,,1,,,,,,,US,,,US,,0,,,,02,0.00,,,,,,0.00,,0.00,0.00,,,,,,,,,,,,,,USD,,,,,,,,,1/0/1900 0:00,,,,0,,,,,0,0,,,0,0,,,,0.000,,,,,,,,,,,,0,,,,,,,,,,,,,,,,,,,,,,,,,,,,0,0.00,,0.00,0.00,,,,,,,,
4500000147,1710,F,NB,,,9,4/5/2018,BPINST,4/5/2018 19:39,1,7,USSU-VSF08,EN,0002,14,30,0,2.000,0.000,1710,002,USD,"1,00000",,4/5/2018,,,,,,,,,,,,,,,,,,,,,,,0.00,,,1000000386,A17001,SAP,,,,,1,,,,,,,US,,,US,,0,,,,02,0.00,,,,,,0.00,,0.00,0.00,,,,,,,,,,,,,,USD,,,,,,,,,1/0/1900 0:00,,,,0,,,,,0,0,,,0,0,,,,0.000,,,,,,,,,,,,0,,,,,,,,,,,,,,,,,,,,,,,,,,,,0,0.00,,0.00,0.00,,,,,,,,
4500000148,1710,F,NB,,,9,4/5/2018,BPINST,4/5/2018 19:39,1,7,USSU-VSF08,EN,0002,14,30,0,2.000,0.000,1710,002,USD,"1,00000",,4/5/2018,,,,,,,,,,,,,,,,,,,,,,,0.00,,,1000000387,A17001,SAP,,,,,1,,,,,,,US,,,US,,0,,,,02,0.00,,,,,,0.00,,0.00,0.00,,,,,,,,,,,,,,USD,,,,,,,,,1/0/1900 0:00,,,,0,,,,,0,0,,,0,0,,,,0.000,,,,,,,,,,,,0,,,,,,,,,,,,,,,,,,,,,,,,,,,,0,0.00,,0.00,0.00,,,,,,,,
4500000149,1710,F,NB,,,9,4/5/2018,BPINST,4/5/2018 19:40,1,7,USSU-VSF06,EN,NT30,30,0,0,0.000,0.000,1710,002,USD,"1,00000",,4/5/2018,,,,,,,,,,,,,,,,,,,,,,,0.00,,,1000000388,A17001,SAP,,,,,1,,,,,,,US,,,US,,0,,,,02,0.00,,,,,,0.00,,0.00,0.00,,,,,,,,,,,,,,USD,,,,,,,,,1/0/1900 0:00,,,,0,,,,,0,0,,,0,0,,,,0.000,,,,,,,,,,,,0,,,,,,,,,,,,,,,,,,,,,,,,,,,,0,0.00,,0.00,0.00,,,,,,,,
4500000150,1710,F,NB,,,9,4/5/2018,BPINST,4/5/2018 19:40,1,1,USSU-VSF01,EN,0002,14,30,0,2.000,0.000,1710,002,USD,"1,00000",,4/5/2018,,,,,,,,,,,,,,,,,,,,,,,0.00,,,1000000389,A17001,SAP,,,,,1,,,,,,,US,,,US,,0,,,,02,0.00,,,,,,0.00,,0.00,0.00,,,,,,,,,,,,,,USD,,,,,,,,,1/0/1900 0:00,,,,0,,,,,0,0,,,0,0,,,,0.000,,,,,,,,,,,,0,,,,,,,,,,,,,,,,,,,,,,,,,,,,0,0.00,,0.00,0.00,,,,,,,,
4500000151,1710,F,NB,,,9,4/5/2018,BPINST,4/5/2018 19:40,1,1,USSU-VSF01,EN,0002,14,30,0,2.000,0.000,1710,002,USD,"1,00000",,4/5/2018,,,,,,,,,,,,,,,,,,,,,,,0.00,,,1000000390,A17001,SAP,,,,,1,,,,,,,US,,,US,,0,,,,02,0.00,,,,,,0.00,,0.00,0.00,,,,,,,,,,,,,,USD,,,,,,,,,1/0/1900 0:00,,,,0,,,,,0,0,,,0,0,,,,0.000,,,,,,,,,,,,0,,,,,,,,,,,,,,,,,,,,,,,,,,,,0,0.00,,0.00,0.00,,,,,,,,
4500000152,1710,F,NB,,,9,4/5/2018,BPINST,4/5/2018 19:40,1,1,USSU-VSF01,EN,0002,14,30,0,2.000,0.000,1710,002,USD,"1,00000",,4/5/2018,,,,,,,,,,,,,,,,,,,,,,,0.00,,,1000000391,A17001,SAP,,,,,1,,,,,,,US,,,US,,0,,,,02,0.00,,,,,,0.00,,0.00,0.00,,,,,,,,,,,,,,USD,,,,,,,,,1/0/1900 0:00,,,,0,,,,,0,0,,,0,0,,,,0.000,,,,,,,,,,,,0,,,,,,,,,,,,,,,,,,,,,,,,,,,,0,0.00,,0.00,0.00,,,,,,,,
4500000153,1710,F,NB,,,9,10/5/2018,BPINST,10/5/2018 20:59,1,9,USSU-VSF04,EN,0002,14,30,0,2.000,0.000,1710,002,USD,"1,00000",,10/5/2018,,,,,,,,,,,,,,,,,,,,,,,0.00,,,1000000400,A17001,SAP,,,,,1,,,,,,,US,,,US,,0,,,,02,0.00,,,,,,0.00,,0.00,0.00,,,,,,,,,,,,,,USD,,,,,,,,,1/0/1900 0:00,,,,0,,,,,0,0,,,0,0,,,,0.000,,,,,,,,,,,,0,,,,,,,,,,,,,,,,,,,,,,,,,,,,0,0.00,,0.00,0.00,,,,,,,,
4500000154,1710,F,NB,,,9,10/5/2018,BPINST,10/5/2018 21:22,1,9,USSU-VSF04,EN,0002,14,30,0,2.000,0.000,1710,002,USD,"1,00000",,10/5/2018,,,,,,,,,,,,,,,,,,,,,,,0.00,,,1000000401,A17001,SAP,,,,,1,,,,,,,US,,,US,,0,,,,02,0.00,,,,,,0.00,,0.00,0.00,,,,,,,,,,,,,,USD,,,,,,,,,1/0/1900 0:00,,,,0,,,,,0,0,,,0,0,,,,0.000,,,,,,,,,,,,0,,,,,,,,,,,,,,,,,,,,,,,,,,,,0,0.00,,0.00,0.00,,,,,,,,
4500000155,1710,F,NB,,,9,10/5/2018,BPINST,10/5/2018 21:26,1,9,USSU-VSF02,EN,0002,14,30,0,2.000,0.000,1710,002,USD,"1,00000",,10/5/2018,,,,,,,,,,,,,,,,,,,,,,,0.00,,,1000000402,A17001,SAP,,,,,1,,,,,,,US,,,US,,0,,,,02,0.00,,,,,,0.00,,0.00,0.00,,,,,,,,,,,,,,USD,,,,,,,,,1/0/1900 0:00,,,,0,,,,,0,0,,,0,0,,,,0.000,,,,,,,,,,,,0,,,,,,,,,,,,,,,,,,,,,,,,,,,,0,0.00,,0.00,0.00,,,,,,,,
4500000156,1710,F,NB,,,9,10/5/2018,BPINST,10/5/2018 21:26,1,9,USSU-VSF01,EN,0002,14,30,0,2.000,0.000,1710,002,USD,"1,00000",,10/5/2018,,,,,,,,,,,,,,,,,,,,,,,0.00,,,1000000403,A17001,SAP,,,,,1,,,,,,,US,,,US,,0,,,,02,0.00,,,,,,0.00,,0.00,0.00,,,,,,,,,,,,,,USD,,,,,,,,,1/0/1900 0:00,,,,0,,,,,0,0,,,0,0,,,,0.000,,,,,,,,,,,,0,,,,,,,,,,,,,,,,,,,,,,,,,,,,0,0.00,,0.00,0.00,,,,,,,,
4500000157,1710,F,NB,,,9,10/5/2018,BPINST,10/5/2018 21:27,1,10,USSU-VSF05,EN,0002,14,30,0,2.000,0.000,1710,002,USD,"1,00000",,10/5/2018,,,,,,,,,,,,,,,,,,,,,,,0.00,,,1000000404,A17001,SAP,,,,,1,,,,,,,US,,,US,,0,,,,02,0.00,,,,,,0.00,,0.00,0.00,,,,,,,,,,,,,,USD,,,,,,,,,1/0/1900 0:00,,,,0,,,,,0,0,,,0,0,,,,0.000,,,,,,,,,,,,0,,,,,,,,,,,,,,,,,,,,,,,,,,,,0,0.00,,0.00,0.00,,,,,,,,
4500000158,1710,F,NB,,,9,10/5/2018,BPINST,10/5/2018 21:27,1,10,USSU-VSF06,EN,NT30,30,0,0,0.000,0.000,1710,002,USD,"1,00000",,10/5/2018,,,,,,,,,,,,,,,,,,,,,,,0.00,,,1000000405,A17001,SAP,,,,,1,,,,,,,US,,,US,,0,,,,02,0.00,,,,,,0.00,,0.00,0.00,,,,,,,,,,,,,,USD,,,,,,,,,1/0/1900 0:00,,,,0,,,,,0,0,,,0,0,,,,0.000,,,,,,,,,,,,0,,,,,,,,,,,,,,,,,,,,,,,,,,,,0,0.00,,0.00,0.00,,,,,,,,
4500000159,1710,F,NB,,,9,10/5/2018,BPINST,10/5/2018 21:27,1,10,USSU-VSF07,EN,NT30,30,0,0,0.000,0.000,1710,002,USD,"1,00000",,10/5/2018,,,,,,,,,,,,,,,,,,,,,,,0.00,,,1000000406,A17001,SAP,,,,,1,,,,,,,US,,,US,,0,,,,02,0.00,,,,,,0.00,,0.00,0.00,,,,,,,,,,,,,,USD,,,,,,,,,1/0/1900 0:00,,,,0,,,,,0,0,,,0,0,,,,0.000,,,,,,,,,,,,0,,,,,,,,,,,,,,,,,,,,,,,,,,,,0,0.00,,0.00,0.00,,,,,,,,
4500000160,1710,F,NB,,,9,10/5/2018,BPINST,10/5/2018 21:27,1,7,USSU-VSF08,EN,0002,14,30,0,2.000,0.000,1710,002,USD,"1,00000",,10/5/2018,,,,,,,,,,,,,,,,,,,,,,,0.00,,,1000000407,A17001,SAP,,,,,1,,,,,,,US,,,US,,0,,,,02,0.00,,,,,,0.00,,0.00,0.00,,,,,,,,,,,,,,USD,,,,,,,,,1/0/1900 0:00,,,,0,,,,,0,0,,,0,0,,,,0.000,,,,,,,,,,,,0,,,,,,,,,,,,,,,,,,,,,,,,,,,,0,0.00,,0.00,0.00,,,,,,,,
4500000161,1710,F,NB,,,9,10/5/2018,BPINST,10/5/2018 21:27,1,7,USSU-VSF08,EN,0002,14,30,0,2.000,0.000,1710,002,USD,"1,00000",,10/5/2018,,,,,,,,,,,,,,,,,,,,,,,0.00,,,1000000408,A17001,SAP,,,,,1,,,,,,,US,,,US,,0,,,,02,0.00,,,,,,0.00,,0.00,0.00,,,,,,,,,,,,,,USD,,,,,,,,,1/0/1900 0:00,,,,0,,,,,0,0,,,0,0,,,,0.000,,,,,,,,,,,,0,,,,,,,,,,,,,,,,,,,,,,,,,,,,0,0.00,,0.00,0.00,,,,,,,,
4500000162,1710,F,NB,,,9,10/5/2018,BPINST,10/5/2018 21:27,1,7,USSU-VSF06,EN,NT30,30,0,0,0.000,0.000,1710,002,USD,"1,00000",,10/5/2018,,,,,,,,,,,,,,,,,,,,,,,0.00,,,1000000409,A17001,SAP,,,,,1,,,,,,,US,,,US,,0,,,,02,0.00,,,,,,0.00,,0.00,0.00,,,,,,,,,,,,,,USD,,,,,,,,,1/0/1900 0:00,,,,0,,,,,0,0,,,0,0,,,,0.000,,,,,,,,,,,,0,,,,,,,,,,,,,,,,,,,,,,,,,,,,0,0.00,,0.00,0.00,,,,,,,,
4500000163,1710,F,NB,,,9,10/5/2018,BPINST,10/5/2018 21:27,1,1,USSU-VSF01,EN,0002,14,30,0,2.000,0.000,1710,002,USD,"1,00000",,10/5/2018,,,,,,,,,,,,,,,,,,,,,,,0.00,,,1000000410,A17001,SAP,,,,,1,,,,,,,US,,,US,,0,,,,02,0.00,,,,,,0.00,,0.00,0.00,,,,,,,,,,,,,,USD,,,,,,,,,1/0/1900 0:00,,,,0,,,,,0,0,,,0,0,,,,0.000,,,,,,,,,,,,0,,,,,,,,,,,,,,,,,,,,,,,,,,,,0,0.00,,0.00,0.00,,,,,,,,
4500000164,1710,F,NB,,,9,10/5/2018,BPINST,10/5/2018 21:27,1,1,USSU-VSF01,EN,0002,14,30,0,2.000,0.000,1710,002,USD,"1,00000",,10/5/2018,,,,,,,,,,,,,,,,,,,,,,,0.00,,,1000000411,A17001,SAP,,,,,1,,,,,,,US,,,US,,0,,,,02,0.00,,,,,,0.00,,0.00,0.00,,,,,,,,,,,,,,USD,,,,,,,,,1/0/1900 0:00,,,,0,,,,,0,0,,,0,0,,,,0.000,,,,,,,,,,,,0,,,,,,,,,,,,,,,,,,,,,,,,,,,,0,0.00,,0.00,0.00,,,,,,,,
4500000165,1710,F,NB,,,9,10/5/2018,BPINST,10/5/2018 21:27,1,1,USSU-VSF01,EN,0002,14,30,0,2.000,0.000,1710,002,USD,"1,00000",,10/5/2018,,,,,,,,,,,,,,,,,,,,,,,0.00,,,1000000412,A17001,SAP,,,,,1,,,,,,,US,,,US,,0,,,,02,0.00,,,,,,0.00,,0.00,0.00,,,,,,,,,,,,,,USD,,,,,,,,,1/0/1900 0:00,,,,0,,,,,0,0,,,0,0,,,,0.000,,,,,,,,,,,,0,,,,,,,,,,,,,,,,,,,,,,,,,,,,0,0.00,,0.00,0.00,,,,,,,,
4500000166,1710,F,NB,,,9,10/8/2018,BPINST,10/8/2018 18:18,1,9,USSU-VSF04,EN,0002,14,30,0,2.000,0.000,1710,002,USD,"1,00000",,10/8/2018,,,,,,,,,,,,,,,,,,,,,,,0.00,,,1000000420,A17001,SAP,,,,,1,,,,,,,US,,,US,,0,,,,02,0.00,,,,,,0.00,,0.00,0.00,,,,,,,,,,,,,,USD,,,,,,,,,1/0/1900 0:00,,,,0,,,,,0,0,,,0,0,,,,0.000,,,,,,,,,,,,0,,,,,,,,,,,,,,,,,,,,,,,,,,,,0,0.00,,0.00,0.00,,,,,,,,
4500000167,1710,F,NB,,,9,10/8/2018,BPINST,10/8/2018 18:18,1,9,USSU-VSF02,EN,0002,14,30,0,2.000,0.000,1710,002,USD,"1,00000",,10/8/2018,,,,,,,,,,,,,,,,,,,,,,,0.00,,,1000000421,A17001,SAP,,,,,1,,,,,,,US,,,US,,0,,,,02,0.00,,,,,,0.00,,0.00,0.00,,,,,,,,,,,,,,USD,,,,,,,,,1/0/1900 0:00,,,,0,,,,,0,0,,,0,0,,,,0.000,,,,,,,,,,,,0,,,,,,,,,,,,,,,,,,,,,,,,,,,,0,0.00,,0.00,0.00,,,,,,,,
4500000168,1710,F,NB,,,9,10/8/2018,BPINST,10/8/2018 18:18,1,9,USSU-VSF01,EN,0002,14,30,0,2.000,0.000,1710,002,USD,"1,00000",,10/8/2018,,,,,,,,,,,,,,,,,,,,,,,0.00,,,1000000422,A17001,SAP,,,,,1,,,,,,,US,,,US,,0,,,,02,0.00,,,,,,0.00,,0.00,0.00,,,,,,,,,,,,,,USD,,,,,,,,,1/0/1900 0:00,,,,0,,,,,0,0,,,0,0,,,,0.000,,,,,,,,,,,,0,,,,,,,,,,,,,,,,,,,,,,,,,,,,0,0.00,,0.00,0.00,,,,,,,,
4500000169,1710,F,NB,,,9,10/8/2018,BPINST,10/8/2018 18:18,1,10,USSU-VSF05,EN,0002,14,30,0,2.000,0.000,1710,002,USD,"1,00000",,10/8/2018,,,,,,,,,,,,,,,,,,,,,,,0.00,,,1000000423,A17001,SAP,,,,,1,,,,,,,US,,,US,,0,,,,02,0.00,,,,,,0.00,,0.00,0.00,,,,,,,,,,,,,,USD,,,,,,,,,1/0/1900 0:00,,,,0,,,,,0,0,,,0,0,,,,0.000,,,,,,,,,,,,0,,,,,,,,,,,,,,,,,,,,,,,,,,,,0,0.00,,0.00,0.00,,,,,,,,
4500000170,1710,F,NB,,,9,10/8/2018,BPINST,10/8/2018 18:19,1,10,USSU-VSF06,EN,NT30,30,0,0,0.000,0.000,1710,002,USD,"1,00000",,10/8/2018,,,,,,,,,,,,,,,,,,,,,,,0.00,,,1000000424,A17001,SAP,,,,,1,,,,,,,US,,,US,,0,,,,02,0.00,,,,,,0.00,,0.00,0.00,,,,,,,,,,,,,,USD,,,,,,,,,1/0/1900 0:00,,,,0,,,,,0,0,,,0,0,,,,0.000,,,,,,,,,,,,0,,,,,,,,,,,,,,,,,,,,,,,,,,,,0,0.00,,0.00,0.00,,,,,,,,
4500000171,1710,F,NB,,,9,10/8/2018,BPINST,10/8/2018 18:19,1,10,USSU-VSF07,EN,NT30,30,0,0,0.000,0.000,1710,002,USD,"1,00000",,10/8/2018,,,,,,,,,,,,,,,,,,,,,,,0.00,,,1000000425,A17001,SAP,,,,,1,,,,,,,US,,,US,,0,,,,02,0.00,,,,,,0.00,,0.00,0.00,,,,,,,,,,,,,,USD,,,,,,,,,1/0/1900 0:00,,,,0,,,,,0,0,,,0,0,,,,0.000,,,,,,,,,,,,0,,,,,,,,,,,,,,,,,,,,,,,,,,,,0,0.00,,0.00,0.00,,,,,,,,
4500000172,1710,F,NB,,,9,10/8/2018,BPINST,10/8/2018 18:19,1,7,USSU-VSF08,EN,0002,14,30,0,2.000,0.000,1710,002,USD,"1,00000",,10/8/2018,,,,,,,,,,,,,,,,,,,,,,,0.00,,,1000000426,A17001,SAP,,,,,1,,,,,,,US,,,US,,0,,,,02,0.00,,,,,,0.00,,0.00,0.00,,,,,,,,,,,,,,USD,,,,,,,,,1/0/1900 0:00,,,,0,,,,,0,0,,,0,0,,,,0.000,,,,,,,,,,,,0,,,,,,,,,,,,,,,,,,,,,,,,,,,,0,0.00,,0.00,0.00,,,,,,,,
4500000173,1710,F,NB,,,9,10/8/2018,BPINST,10/8/2018 18:19,1,7,USSU-VSF08,EN,0002,14,30,0,2.000,0.000,1710,002,USD,"1,00000",,10/8/2018,,,,,,,,,,,,,,,,,,,,,,,0.00,,,1000000427,A17001,SAP,,,,,1,,,,,,,US,,,US,,0,,,,02,0.00,,,,,,0.00,,0.00,0.00,,,,,,,,,,,,,,USD,,,,,,,,,1/0/1900 0:00,,,,0,,,,,0,0,,,0,0,,,,0.000,,,,,,,,,,,,0,,,,,,,,,,,,,,,,,,,,,,,,,,,,0,0.00,,0.00,0.00,,,,,,,,
4500000174,1710,F,NB,,,9,10/8/2018,BPINST,10/8/2018 18:19,1,7,USSU-VSF06,EN,NT30,30,0,0,0.000,0.000,1710,002,USD,"1,00000",,10/8/2018,,,,,,,,,,,,,,,,,,,,,,,0.00,,,1000000428,A17001,SAP,,,,,1,,,,,,,US,,,US,,0,,,,02,0.00,,,,,,0.00,,0.00,0.00,,,,,,,,,,,,,,USD,,,,,,,,,1/0/1900 0:00,,,,0,,,,,0,0,,,0,0,,,,0.000,,,,,,,,,,,,0,,,,,,,,,,,,,,,,,,,,,,,,,,,,0,0.00,,0.00,0.00,,,,,,,,
4500000175,1710,F,NB,,,9,10/8/2018,BPINST,10/8/2018 18:19,1,1,USSU-VSF01,EN,0002,14,30,0,2.000,0.000,1710,002,USD,"1,00000",,10/8/2018,,,,,,,,,,,,,,,,,,,,,,,0.00,,,1000000429,A17001,SAP,,,,,1,,,,,,,US,,,US,,0,,,,02,0.00,,,,,,0.00,,0.00,0.00,,,,,,,,,,,,,,USD,,,,,,,,,1/0/1900 0:00,,,,0,,,,,0,0,,,0,0,,,,0.000,,,,,,,,,,,,0,,,,,,,,,,,,,,,,,,,,,,,,,,,,0,0.00,,0.00,0.00,,,,,,,,
4500000176,1710,F,NB,,,9,10/8/2018,BPINST,10/8/2018 18:19,1,1,USSU-VSF01,EN,0002,14,30,0,2.000,0.000,1710,002,USD,"1,00000",,10/8/2018,,,,,,,,,,,,,,,,,,,,,,,0.00,,,1000000430,A17001,SAP,,,,,1,,,,,,,US,,,US,,0,,,,02,0.00,,,,,,0.00,,0.00,0.00,,,,,,,,,,,,,,USD,,,,,,,,,1/0/1900 0:00,,,,0,,,,,0,0,,,0,0,,,,0.000,,,,,,,,,,,,0,,,,,,,,,,,,,,,,,,,,,,,,,,,,0,0.00,,0.00,0.00,,,,,,,,
4500000177,1710,F,NB,,,9,10/8/2018,BPINST,10/8/2018 18:19,1,1,USSU-VSF01,EN,0002,14,30,0,2.000,0.000,1710,002,USD,"1,00000",,10/8/2018,,,,,,,,,,,,,,,,,,,,,,,0.00,,,1000000431,A17001,SAP,,,,,1,,,,,,,US,,,US,,0,,,,02,0.00,,,,,,0.00,,0.00,0.00,,,,,,,,,,,,,,USD,,,,,,,,,1/0/1900 0:00,,,,0,,,,,0,0,,,0,0,,,,0.000,,,,,,,,,,,,0,,,,,,,,,,,,,,,,,,,,,,,,,,,,0,0.00,,0.00,0.00,,,,,,,,
4500000178,1710,F,NB,,,9,10/9/2018,BPINST,10/9/2018 23:30,1,9,USSU-VSF04,EN,0002,14,30,0,2.000,0.000,1710,002,USD,"1,00000",,10/9/2018,,,,,,,,,,,,,,,,,,,,,,,0.00,,,1000000432,A17001,SAP,,,,,1,,,,,,,US,,,US,,0,,,,02,0.00,,,,,,0.00,,0.00,0.00,,,,,,,,,,,,,,USD,,,,,,,,,1/0/1900 0:00,,,,0,,,,,0,0,,,0,0,,,,0.000,,,,,,,,,,,,0,,,,,,,,,,,,,,,,,,,,,,,,,,,,0,0.00,,0.00,0.00,,,,,,,,
4500000179,1710,F,NB,,,9,10/9/2018,BPINST,10/9/2018 23:30,1,9,USSU-VSF02,EN,0002,14,30,0,2.000,0.000,1710,002,USD,"1,00000",,10/9/2018,,,,,,,,,,,,,,,,,,,,,,,0.00,,,1000000433,A17001,SAP,,,,,1,,,,,,,US,,,US,,0,,,,02,0.00,,,,,,0.00,,0.00,0.00,,,,,,,,,,,,,,USD,,,,,,,,,1/0/1900 0:00,,,,0,,,,,0,0,,,0,0,,,,0.000,,,,,,,,,,,,0,,,,,,,,,,,,,,,,,,,,,,,,,,,,0,0.00,,0.00,0.00,,,,,,,,
4500000180,1710,F,NB,,,9,10/9/2018,BPINST,10/9/2018 23:30,1,9,USSU-VSF01,EN,0002,14,30,0,2.000,0.000,1710,002,USD,"1,00000",,10/9/2018,,,,,,,,,,,,,,,,,,,,,,,0.00,,,1000000434,A17001,SAP,,,,,1,,,,,,,US,,,US,,0,,,,02,0.00,,,,,,0.00,,0.00,0.00,,,,,,,,,,,,,,USD,,,,,,,,,1/0/1900 0:00,,,,0,,,,,0,0,,,0,0,,,,0.000,,,,,,,,,,,,0,,,,,,,,,,,,,,,,,,,,,,,,,,,,0,0.00,,0.00,0.00,,,,,,,,
4500000181,1710,F,NB,,,9,10/9/2018,BPINST,10/9/2018 23:30,1,10,USSU-VSF05,EN,0002,14,30,0,2.000,0.000,1710,002,USD,"1,00000",,10/9/2018,,,,,,,,,,,,,,,,,,,,,,,0.00,,,1000000435,A17001,SAP,,,,,1,,,,,,,US,,,US,,0,,,,02,0.00,,,,,,0.00,,0.00,0.00,,,,,,,,,,,,,,USD,,,,,,,,,1/0/1900 0:00,,,,0,,,,,0,0,,,0,0,,,,0.000,,,,,,,,,,,,0,,,,,,,,,,,,,,,,,,,,,,,,,,,,0,0.00,,0.00,0.00,,,,,,,,
4500000182,1710,F,NB,,,9,10/9/2018,BPINST,10/9/2018 23:30,1,10,USSU-VSF06,EN,NT30,30,0,0,0.000,0.000,1710,002,USD,"1,00000",,10/9/2018,,,,,,,,,,,,,,,,,,,,,,,0.00,,,1000000436,A17001,SAP,,,,,1,,,,,,,US,,,US,,0,,,,02,0.00,,,,,,0.00,,0.00,0.00,,,,,,,,,,,,,,USD,,,,,,,,,1/0/1900 0:00,,,,0,,,,,0,0,,,0,0,,,,0.000,,,,,,,,,,,,0,,,,,,,,,,,,,,,,,,,,,,,,,,,,0,0.00,,0.00,0.00,,,,,,,,
4500000183,1710,F,NB,,,9,10/9/2018,BPINST,10/9/2018 23:30,1,10,USSU-VSF07,EN,NT30,30,0,0,0.000,0.000,1710,002,USD,"1,00000",,10/9/2018,,,,,,,,,,,,,,,,,,,,,,,0.00,,,1000000437,A17001,SAP,,,,,1,,,,,,,US,,,US,,0,,,,02,0.00,,,,,,0.00,,0.00,0.00,,,,,,,,,,,,,,USD,,,,,,,,,1/0/1900 0:00,,,,0,,,,,0,0,,,0,0,,,,0.000,,,,,,,,,,,,0,,,,,,,,,,,,,,,,,,,,,,,,,,,,0,0.00,,0.00,0.00,,,,,,,,
4500000184,1710,F,NB,,,9,10/9/2018,BPINST,10/9/2018 23:30,1,7,USSU-VSF08,EN,0002,14,30,0,2.000,0.000,1710,002,USD,"1,00000",,10/9/2018,,,,,,,,,,,,,,,,,,,,,,,0.00,,,1000000438,A17001,SAP,,,,,1,,,,,,,US,,,US,,0,,,,02,0.00,,,,,,0.00,,0.00,0.00,,,,,,,,,,,,,,USD,,,,,,,,,1/0/1900 0:00,,,,0,,,,,0,0,,,0,0,,,,0.000,,,,,,,,,,,,0,,,,,,,,,,,,,,,,,,,,,,,,,,,,0,0.00,,0.00,0.00,,,,,,,,
4500000185,1710,F,NB,,,9,10/9/2018,BPINST,10/9/2018 23:30,1,7,USSU-VSF08,EN,0002,14,30,0,2.000,0.000,1710,002,USD,"1,00000",,10/9/2018,,,,,,,,,,,,,,,,,,,,,,,0.00,,,1000000439,A17001,SAP,,,,,1,,,,,,,US,,,US,,0,,,,02,0.00,,,,,,0.00,,0.00,0.00,,,,,,,,,,,,,,USD,,,,,,,,,1/0/1900 0:00,,,,0,,,,,0,0,,,0,0,,,,0.000,,,,,,,,,,,,0,,,,,,,,,,,,,,,,,,,,,,,,,,,,0,0.00,,0.00,0.00,,,,,,,,
4500000186,1710,F,NB,,,9,10/9/2018,BPINST,10/9/2018 23:31,1,7,USSU-VSF06,EN,NT30,30,0,0,0.000,0.000,1710,002,USD,"1,00000",,10/9/2018,,,,,,,,,,,,,,,,,,,,,,,0.00,,,1000000440,A17001,SAP,,,,,1,,,,,,,US,,,US,,0,,,,02,0.00,,,,,,0.00,,0.00,0.00,,,,,,,,,,,,,,USD,,,,,,,,,1/0/1900 0:00,,,,0,,,,,0,0,,,0,0,,,,0.000,,,,,,,,,,,,0,,,,,,,,,,,,,,,,,,,,,,,,,,,,0,0.00,,0.00,0.00,,,,,,,,
4500000187,1710,F,NB,,,9,10/9/2018,BPINST,10/9/2018 23:31,1,1,USSU-VSF01,EN,0002,14,30,0,2.000,0.000,1710,002,USD,"1,00000",,10/9/2018,,,,,,,,,,,,,,,,,,,,,,,0.00,,,1000000441,A17001,SAP,,,,,1,,,,,,,US,,,US,,0,,,,02,0.00,,,,,,0.00,,0.00,0.00,,,,,,,,,,,,,,USD,,,,,,,,,1/0/1900 0:00,,,,0,,,,,0,0,,,0,0,,,,0.000,,,,,,,,,,,,0,,,,,,,,,,,,,,,,,,,,,,,,,,,,0,0.00,,0.00,0.00,,,,,,,,
4500000188,1710,F,NB,,,9,10/9/2018,BPINST,10/9/2018 23:31,1,1,USSU-VSF01,EN,0002,14,30,0,2.000,0.000,1710,002,USD,"1,00000",,10/9/2018,,,,,,,,,,,,,,,,,,,,,,,0.00,,,1000000442,A17001,SAP,,,,,1,,,,,,,US,,,US,,0,,,,02,0.00,,,,,,0.00,,0.00,0.00,,,,,,,,,,,,,,USD,,,,,,,,,1/0/1900 0:00,,,,0,,,,,0,0,,,0,0,,,,0.000,,,,,,,,,,,,0,,,,,,,,,,,,,,,,,,,,,,,,,,,,0,0.00,,0.00,0.00,,,,,,,,
4500000189,1710,F,NB,,,9,10/9/2018,BPINST,10/9/2018 23:31,1,1,USSU-VSF01,EN,0002,14,30,0,2.000,0.000,1710,002,USD,"1,00000",,10/9/2018,,,,,,,,,,,,,,,,,,,,,,,0.00,,,1000000443,A17001,SAP,,,,,1,,,,,,,US,,,US,,0,,,,02,0.00,,,,,,0.00,,0.00,0.00,,,,,,,,,,,,,,USD,,,,,,,,,1/0/1900 0:00,,,,0,,,,,0,0,,,0,0,,,,0.000,,,,,,,,,,,,0,,,,,,,,,,,,,,,,,,,,,,,,,,,,0,0.00,,0.00,0.00,,,,,,,,
4500000190,1710,F,NB,,,9,10/9/2018,BPINST,10/9/2018 23:36,1,9,USSU-VSF04,EN,0002,14,30,0,2.000,0.000,1710,002,USD,"1,00000",,10/9/2018,,,,,,,,,,,,,,,,,,,,,,,0.00,,,1000000444,A17001,SAP,,,,,1,,,,,,,US,,,US,,0,,,,02,0.00,,,,,,0.00,,0.00,0.00,,,,,,,,,,,,,,USD,,,,,,,,,1/0/1900 0:00,,,,0,,,,,0,0,,,0,0,,,,0.000,,,,,,,,,,,,0,,,,,,,,,,,,,,,,,,,,,,,,,,,,0,0.00,,0.00,0.00,,,,,,,,
4500000191,1710,F,NB,,,9,10/9/2018,BPINST,10/9/2018 23:36,1,9,USSU-VSF02,EN,0002,14,30,0,2.000,0.000,1710,002,USD,"1,00000",,10/9/2018,,,,,,,,,,,,,,,,,,,,,,,0.00,,,1000000445,A17001,SAP,,,,,1,,,,,,,US,,,US,,0,,,,02,0.00,,,,,,0.00,,0.00,0.00,,,,,,,,,,,,,,USD,,,,,,,,,1/0/1900 0:00,,,,0,,,,,0,0,,,0,0,,,,0.000,,,,,,,,,,,,0,,,,,,,,,,,,,,,,,,,,,,,,,,,,0,0.00,,0.00,0.00,,,,,,,,
4500000192,1710,F,NB,,,9,10/9/2018,BPINST,10/9/2018 23:36,1,9,USSU-VSF01,EN,0002,14,30,0,2.000,0.000,1710,002,USD,"1,00000",,10/9/2018,,,,,,,,,,,,,,,,,,,,,,,0.00,,,1000000446,A17001,SAP,,,,,1,,,,,,,US,,,US,,0,,,,02,0.00,,,,,,0.00,,0.00,0.00,,,,,,,,,,,,,,USD,,,,,,,,,1/0/1900 0:00,,,,0,,,,,0,0,,,0,0,,,,0.000,,,,,,,,,,,,0,,,,,,,,,,,,,,,,,,,,,,,,,,,,0,0.00,,0.00,0.00,,,,,,,,
4500000193,1710,F,NB,,,9,10/9/2018,BPINST,10/9/2018 23:36,1,10,USSU-VSF05,EN,0002,14,30,0,2.000,0.000,1710,002,USD,"1,00000",,10/9/2018,,,,,,,,,,,,,,,,,,,,,,,0.00,,,1000000447,A17001,SAP,,,,,1,,,,,,,US,,,US,,0,,,,02,0.00,,,,,,0.00,,0.00,0.00,,,,,,,,,,,,,,USD,,,,,,,,,1/0/1900 0:00,,,,0,,,,,0,0,,,0,0,,,,0.000,,,,,,,,,,,,0,,,,,,,,,,,,,,,,,,,,,,,,,,,,0,0.00,,0.00,0.00,,,,,,,,
4500000194,1710,F,NB,,,9,10/9/2018,BPINST,10/9/2018 23:36,1,10,USSU-VSF06,EN,NT30,30,0,0,0.000,0.000,1710,002,USD,"1,00000",,10/9/2018,,,,,,,,,,,,,,,,,,,,,,,0.00,,,1000000448,A17001,SAP,,,,,1,,,,,,,US,,,US,,0,,,,02,0.00,,,,,,0.00,,0.00,0.00,,,,,,,,,,,,,,USD,,,,,,,,,1/0/1900 0:00,,,,0,,,,,0,0,,,0,0,,,,0.000,,,,,,,,,,,,0,,,,,,,,,,,,,,,,,,,,,,,,,,,,0,0.00,,0.00,0.00,,,,,,,,
4500000195,1710,F,NB,,,9,10/9/2018,BPINST,10/9/2018 23:37,1,10,USSU-VSF07,EN,NT30,30,0,0,0.000,0.000,1710,002,USD,"1,00000",,10/9/2018,,,,,,,,,,,,,,,,,,,,,,,0.00,,,1000000449,A17001,SAP,,,,,1,,,,,,,US,,,US,,0,,,,02,0.00,,,,,,0.00,,0.00,0.00,,,,,,,,,,,,,,USD,,,,,,,,,1/0/1900 0:00,,,,0,,,,,0,0,,,0,0,,,,0.000,,,,,,,,,,,,0,,,,,,,,,,,,,,,,,,,,,,,,,,,,0,0.00,,0.00,0.00,,,,,,,,
4500000196,1710,F,NB,,,9,10/9/2018,BPINST,10/9/2018 23:37,1,7,USSU-VSF08,EN,0002,14,30,0,2.000,0.000,1710,002,USD,"1,00000",,10/9/2018,,,,,,,,,,,,,,,,,,,,,,,0.00,,,1000000450,A17001,SAP,,,,,1,,,,,,,US,,,US,,0,,,,02,0.00,,,,,,0.00,,0.00,0.00,,,,,,,,,,,,,,USD,,,,,,,,,1/0/1900 0:00,,,,0,,,,,0,0,,,0,0,,,,0.000,,,,,,,,,,,,0,,,,,,,,,,,,,,,,,,,,,,,,,,,,0,0.00,,0.00,0.00,,,,,,,,
4500000197,1710,F,NB,,,9,10/9/2018,BPINST,10/9/2018 23:37,1,7,USSU-VSF08,EN,0002,14,30,0,2.000,0.000,1710,002,USD,"1,00000",,10/9/2018,,,,,,,,,,,,,,,,,,,,,,,0.00,,,1000000451,A17001,SAP,,,,,1,,,,,,,US,,,US,,0,,,,02,0.00,,,,,,0.00,,0.00,0.00,,,,,,,,,,,,,,USD,,,,,,,,,1/0/1900 0:00,,,,0,,,,,0,0,,,0,0,,,,0.000,,,,,,,,,,,,0,,,,,,,,,,,,,,,,,,,,,,,,,,,,0,0.00,,0.00,0.00,,,,,,,,
4500000198,1710,F,NB,,,9,10/9/2018,BPINST,10/9/2018 23:37,1,7,USSU-VSF06,EN,NT30,30,0,0,0.000,0.000,1710,002,USD,"1,00000",,10/9/2018,,,,,,,,,,,,,,,,,,,,,,,0.00,,,1000000452,A17001,SAP,,,,,1,,,,,,,US,,,US,,0,,,,02,0.00,,,,,,0.00,,0.00,0.00,,,,,,,,,,,,,,USD,,,,,,,,,1/0/1900 0:00,,,,0,,,,,0,0,,,0,0,,,,0.000,,,,,,,,,,,,0,,,,,,,,,,,,,,,,,,,,,,,,,,,,0,0.00,,0.00,0.00,,,,,,,,
4500000199,1710,F,NB,,,9,10/9/2018,BPINST,10/9/2018 23:37,1,1,USSU-VSF01,EN,0002,14,30,0,2.000,0.000,1710,002,USD,"1,00000",,10/9/2018,,,,,,,,,,,,,,,,,,,,,,,0.00,,,1000000453,A17001,SAP,,,,,1,,,,,,,US,,,US,,0,,,,02,0.00,,,,,,0.00,,0.00,0.00,,,,,,,,,,,,,,USD,,,,,,,,,1/0/1900 0:00,,,,0,,,,,0,0,,,0,0,,,,0.000,,,,,,,,,,,,0,,,,,,,,,,,,,,,,,,,,,,,,,,,,0,0.00,,0.00,0.00,,,,,,,,
4500000200,1710,F,NB,,,9,10/9/2018,BPINST,10/9/2018 23:37,1,1,USSU-VSF01,EN,0002,14,30,0,2.000,0.000,1710,002,USD,"1,00000",,10/9/2018,,,,,,,,,,,,,,,,,,,,,,,0.00,,,1000000454,A17001,SAP,,,,,1,,,,,,,US,,,US,,0,,,,02,0.00,,,,,,0.00,,0.00,0.00,,,,,,,,,,,,,,USD,,,,,,,,,1/0/1900 0:00,,,,0,,,,,0,0,,,0,0,,,,0.000,,,,,,,,,,,,0,,,,,,,,,,,,,,,,,,,,,,,,,,,,0,0.00,,0.00,0.00,,,,,,,,
4500000201,1710,F,NB,,,9,10/9/2018,BPINST,10/9/2018 23:37,1,1,USSU-VSF01,EN,0002,14,30,0,2.000,0.000,1710,002,USD,"1,00000",,10/9/2018,,,,,,,,,,,,,,,,,,,,,,,0.00,,,1000000455,A17001,SAP,,,,,1,,,,,,,US,,,US,,0,,,,02,0.00,,,,,,0.00,,0.00,0.00,,,,,,,,,,,,,,USD,,,,,,,,,1/0/1900 0:00,,,,0,,,,,0,0,,,0,0,,,,0.000,,,,,,,,,,,,0,,,,,,,,,,,,,,,,,,,,,,,,,,,,0,0.00,,0.00,0.00,,,,,,,,
4500000202,1710,F,NB,,,9,10/16/2018,S4H_MM,10/16/2018 9:50,10,30,EWM17-SU01,EN,0004,0,0,0,0.000,0.000,1710,002,USD,"1,00000",,10/16/2018,,,,,,,,,,,,,,,,,,,,,,,0.00,,,1000000460,A17001,SAP,EWM17-SU01,,,,1,,,,,,,US,,,US,,0,,,,02,0.00,,,,,,0.00,,0.00,0.00,,,,,,,,,,,,,,USD,,,,,,,,,1/0/1900 0:00,,,,0,,,,,0,0,,,0,0,,,,0.000,,,,,,,,,,,,0,,,,,,,,,,,,,,,,,,,,,,,,,,,,0,0.00,,0.00,0.00,,,,,,,,
4500000203,1710,F,NB,,,9,10/17/2018,S4H_PP,10/17/2018 5:36,10,10,17300001,EN,0004,0,0,0,0.000,0.000,1710,001,USD,"1,00000",,10/17/2018,,,,,,,,,,,,,,,,,,,,,,,0.00,,,1000000465,A17001,SAP,17300001,,,,1,,,,,,,US,,,US,,0,,,,02,0.00,,,,,,0.00,,0.00,0.00,,,,,,,,,,,,,,USD,,,,,,,,,1/0/1900 0:00,,,,0,,,,,0,0,,,0,0,,,,0.000,,,,,,,,,,,,0,,,,,,,,,,,,,,,,,,,,,,,,,,,,0,0.00,,0.00,0.00,,,,,,,,
4500000204,1710,F,NB,,,9,10/17/2018,S4H_MM,10/17/2018 6:13,10,10,EWM17-SU01,EN,0004,0,0,0,0.000,0.000,1710,002,USD,"1,00000",,10/17/2018,,,,,,,,,,,,,,,,,,,,,,,0.00,,,1000000466,A17001,SAP,EWM17-SU01,,,,1,,,,,,,US,,,US,,0,,,,02,0.00,,,,,,0.00,,0.00,0.00,,,,,,,,,,,,,,USD,,,,,,,,,1/0/1900 0:00,,,,0,,,,,0,0,,,0,0,,,,0.000,,,,,,,,,,,,0,,,,,,,,,,,,,,,,,,,,,,,,,,,,0,0.00,,0.00,0.00,,,,,,,,
4500000205,1710,F,NB,,,9,10/17/2018,S4H_MM,10/17/2018 6:14,10,20,EWM17-SU01,EN,0004,0,0,0,0.000,0.000,1710,002,USD,"1,00000",,10/17/2018,,,,,,,,,,,,,,,,,,,,,,,0.00,,,1000000467,A17001,SAP,EWM17-SU01,,,,1,,,,,,,US,,,US,,0,,,,02,0.00,,,,,,0.00,,0.00,0.00,,,,,,,,,,,,,,USD,,,,,,,,,1/0/1900 0:00,,,,0,,,,,0,0,,,0,0,,,,0.000,,,,,,,,,,,,0,,,,,,,,,,,,,,,,,,,,,,,,,,,,0,0.00,,0.00,0.00,,,,,,,,
4500000206,1710,F,NB,,,9,10/17/2018,S4H_MM,10/17/2018 6:20,10,30,EWM17-SU01,EN,0004,0,0,0,0.000,0.000,1710,002,USD,"1,00000",,10/17/2018,,,,,,,,,,,,,,,,,,,,,,,0.00,,,1000000468,A17001,SAP,EWM17-SU01,,,,1,,,,,,,US,,,US,,0,,,,02,0.00,,,,,,0.00,,0.00,0.00,,,,,,,,,,,,,,USD,,,,,,,,,1/0/1900 0:00,,,,0,,,,,0,0,,,0,0,,,,0.000,,,,,,,,,,,,0,,,,,,,,,,,,,,,,,,,,,,,,,,,,0,0.00,,0.00,0.00,,,,,,,,
4500000207,1710,F,NB,,,9,10/17/2018,S4H_MM,10/17/2018 6:21,10,10,EWM17-SU01,EN,0004,0,0,0,0.000,0.000,1710,002,USD,"1,00000",,10/17/2018,,,,,,,,,,,,,,,,,,,,,,,0.00,,,1000000469,A17001,SAP,EWM17-SU01,,,,1,,,,,,,US,,,US,,0,,,,02,0.00,,,,,,0.00,,0.00,0.00,,,,,,,,,,,,,,USD,,,,,,,,,1/0/1900 0:00,,,,0,,,,,0,0,,,0,0,,,,0.000,,,,,,,,,,,,0,,,,,,,,,,,,,,,,,,,,,,,,,,,,0,0.00,,0.00,0.00,,,,,,,,
4500000208,1710,F,NB,,,9,10/17/2018,S4H_MM,10/17/2018 9:24,10,10,EWM17-SU01,EN,0004,0,0,0,0.000,0.000,1710,002,USD,"1,00000",,10/17/2018,,,,,,,,,,,,,,,,,,,,,,,0.00,,,1000000470,A17001,SAP,EWM17-SU01,,,,1,,,,,,,US,,,US,,0,,,,02,0.00,,,,,,0.00,,0.00,0.00,,,,,,,,,,,,,,USD,,,,,,,,,1/0/1900 0:00,,,,0,,,,,0,0,,,0,0,,,,0.000,,,,,,,,,,,,0,,,,,,,,,,,,,,,,,,,,,,,,,,,,0,0.00,,0.00,0.00,,,,,,,,
4500000209,1710,F,NB,,,9,10/18/2018,S4H_MM,10/18/2018 10:55,10,10,17300002,EN,0004,0,0,0,0.000,0.000,1710,003,USD,"1,00000",,10/18/2018,,,,,,,,,,,,,,,,,,,,,,,0.00,,,1000000471,A17001,SAP,17300002,,,,1,,,,,,,US,,,US,,0,,,,05,"10,000.00",,,,,,0.00,,0.00,0.00,,,,,,,,,,,,,,USD,,,,,,,,,1/0/1900 0:00,,,,0,,,,,0,0,,,0,0,,,,0.000,,,,,,,,,,,,0,,,,,,,,,,,,,,,,,,,,,,,,,,,,0,0.00,,0.00,0.00,,,,,,,,
4500000210,1710,F,NB,,,9,10/23/2018,S4H_PP,10/23/2018 12:18,10,10,17300001,EN,0004,0,0,0,0.000,0.000,1710,001,USD,"1,00000",,10/23/2018,,,,,,,,,,,,,,,,,,,,,,,0.00,,,1000000480,A17001,SAP,17300001,,,,1,,,,,,,US,,,US,,0,,,,05,35.00,,,,,,0.00,,0.00,0.00,,,,,,,,,,,,,,USD,,,,,,,,,1/0/1900 0:00,,,,0,,,,,0,0,,,0,0,,,,0.000,,,,,,,,,,,,0,,,,,,,,,,,,,,,,,,,,,,,,,,,,0,0.00,,0.00,0.00,,,,,,,,
4500000211,1710,F,NB,,,9,10/23/2018,S4H_PP,10/23/2018 14:23,10,10,17300001,EN,0004,0,0,0,0.000,0.000,1710,Z90,USD,"1,00000",,10/23/2018,,,,,,,,,,,,,,,,,,,,,,,0.00,,,1000000481,A17001,SAP,17300001,,,,1,,,,,,,US,,,US,,0,,,,05,1.00,,,,,,0.00,,0.00,0.00,,,,,,,,,,,,,,USD,,,,,,,,,1/0/1900 0:00,,,,0,,,,,0,0,,,0,0,,,,0.000,,,,,,,,,,,,0,,,,,,,,,,,,,,,,,,,,,,,,,,,,0,0.00,,0.00,0.00,,,,,,,,
4500000212,1710,F,NB,,,9,10/23/2018,BPINST,10/23/2018 21:55,1,9,USSU-VSF04,EN,0002,14,30,0,2.000,0.000,1710,002,USD,"1,00000",,10/23/2018,,,,,,,,,,,,,,,,,,,,,,,0.00,,,1000000482,A17001,SAP,,,,,1,,,,,,,US,,,US,,0,,,,05,"125,439.21",,,,,,0.00,,0.00,0.00,,,,,,,,,,,,,,USD,,,,,,,,,1/0/1900 0:00,,,,0,,,,,0,0,,,0,0,,,,0.000,,,,,,,,,,,,0,,,,,,,,,,,,,,,,,,,,,,,,,,,,0,0.00,,0.00,0.00,,,,,,,,
4500000213,1710,F,NB,,,9,10/23/2018,BPINST,10/23/2018 21:55,1,9,USSU-VSF02,EN,0002,14,30,0,2.000,0.000,1710,002,USD,"1,00000",,10/23/2018,,,,,,,,,,,,,,,,,,,,,,,0.00,,,1000000483,A17001,SAP,,,,,1,,,,,,,US,,,US,,0,,,,05,"129,960.81",,,,,,0.00,,0.00,0.00,,,,,,,,,,,,,,USD,,,,,,,,,1/0/1900 0:00,,,,0,,,,,0,0,,,0,0,,,,0.000,,,,,,,,,,,,0,,,,,,,,,,,,,,,,,,,,,,,,,,,,0,0.00,,0.00,0.00,,,,,,,,
4500000214,1710,F,NB,,,9,10/23/2018,BPINST,10/23/2018 21:55,1,9,USSU-VSF01,EN,0002,14,30,0,2.000,0.000,1710,002,USD,"1,00000",,10/23/2018,,,,,,,,,,,,,,,,,,,,,,,0.00,,,1000000484,A17001,SAP,,,,,1,,,,,,,US,,,US,,0,,,,05,"14,872.52",,,,,,0.00,,0.00,0.00,,,,,,,,,,,,,,USD,,,,,,,,,1/0/1900 0:00,,,,0,,,,,0,0,,,0,0,,,,0.000,,,,,,,,,,,,0,,,,,,,,,,,,,,,,,,,,,,,,,,,,0,0.00,,0.00,0.00,,,,,,,,
4500000215,1710,F,NB,,,9,10/23/2018,BPINST,10/23/2018 21:55,1,10,USSU-VSF05,EN,0002,14,30,0,2.000,0.000,1710,002,USD,"1,00000",,10/23/2018,,,,,,,,,,,,,,,,,,,,,,,0.00,,,1000000485,A17001,SAP,,,,,1,,,,,,,US,,,US,,0,,,,05,"40,144.44",,,,,,0.00,,0.00,0.00,,,,,,,,,,,,,,USD,,,,,,,,,1/0/1900 0:00,,,,0,,,,,0,0,,,0,0,,,,0.000,,,,,,,,,,,,0,,,,,,,,,,,,,,,,,,,,,,,,,,,,0,0.00,,0.00,0.00,,,,,,,,
4500000216,1710,F,NB,,,9,10/23/2018,BPINST,10/23/2018 21:55,1,10,USSU-VSF06,EN,NT30,30,0,0,0.000,0.000,1710,002,USD,"1,00000",,10/23/2018,,,,,,,,,,,,,,,,,,,,,,,0.00,,,1000000486,A17001,SAP,,,,,1,,,,,,,US,,,US,,0,,,,05,"266,533.82",,,,,,0.00,,0.00,0.00,,,,,,,,,,,,,,USD,,,,,,,,,1/0/1900 0:00,,,,0,,,,,0,0,,,0,0,,,,0.000,,,,,,,,,,,,0,,,,,,,,,,,,,,,,,,,,,,,,,,,,0,0.00,,0.00,0.00,,,,,,,,
4500000217,1710,F,NB,,,9,10/23/2018,BPINST,10/23/2018 21:55,1,10,USSU-VSF07,EN,NT30,30,0,0,0.000,0.000,1710,002,USD,"1,00000",,10/23/2018,,,,,,,,,,,,,,,,,,,,,,,0.00,,,1000000487,A17001,SAP,,,,,1,,,,,,,US,,,US,,0,,,,05,"37,188.84",,,,,,0.00,,0.00,0.00,,,,,,,,,,,,,,USD,,,,,,,,,1/0/1900 0:00,,,,0,,,,,0,0,,,0,0,,,,0.000,,,,,,,,,,,,0,,,,,,,,,,,,,,,,,,,,,,,,,,,,0,0.00,,0.00,0.00,,,,,,,,
4500000218,1710,F,NB,,,9,10/23/2018,BPINST,10/23/2018 21:56,1,7,USSU-VSF08,EN,0002,14,30,0,2.000,0.000,1710,002,USD,"1,00000",,10/23/2018,,,,,,,,,,,,,,,,,,,,,,,0.00,,,1000000488,A17001,SAP,,,,,1,,,,,,,US,,,US,,0,,,,05,"100,572.00",,,,,,0.00,,0.00,0.00,,,,,,,,,,,,,,USD,,,,,,,,,1/0/1900 0:00,,,,0,,,,,0,0,,,0,0,,,,0.000,,,,,,,,,,,,0,,,,,,,,,,,,,,,,,,,,,,,,,,,,0,0.00,,0.00,0.00,,,,,,,,
4500000219,1710,F,NB,,,9,10/23/2018,BPINST,10/23/2018 21:56,1,7,USSU-VSF08,EN,0002,14,30,0,2.000,0.000,1710,002,USD,"1,00000",,10/23/2018,,,,,,,,,,,,,,,,,,,,,,,0.00,,,1000000489,A17001,SAP,,,,,1,,,,,,,US,,,US,,0,,,,05,"20,012.90",,,,,,0.00,,0.00,0.00,,,,,,,,,,,,,,USD,,,,,,,,,1/0/1900 0:00,,,,0,,,,,0,0,,,0,0,,,,0.000,,,,,,,,,,,,0,,,,,,,,,,,,,,,,,,,,,,,,,,,,0,0.00,,0.00,0.00,,,,,,,,
4500000220,1710,F,NB,,,9,10/23/2018,BPINST,10/23/2018 21:56,1,7,USSU-VSF06,EN,NT30,30,0,0,0.000,0.000,1710,002,USD,"1,00000",,10/23/2018,,,,,,,,,,,,,,,,,,,,,,,0.00,,,1000000490,A17001,SAP,,,,,1,,,,,,,US,,,US,,0,,,,05,"29,454.32",,,,,,0.00,,0.00,0.00,,,,,,,,,,,,,,USD,,,,,,,,,1/0/1900 0:00,,,,0,,,,,0,0,,,0,0,,,,0.000,,,,,,,,,,,,0,,,,,,,,,,,,,,,,,,,,,,,,,,,,0,0.00,,0.00,0.00,,,,,,,,
4500000221,1710,F,NB,,,9,10/23/2018,BPINST,10/23/2018 21:56,1,1,USSU-VSF01,EN,0002,14,30,0,2.000,0.000,1710,002,USD,"1,00000",,10/23/2018,,,,,,,,,,,,,,,,,,,,,,,0.00,,,1000000491,A17001,SAP,,,,,1,,,,,,,US,,,US,,0,,,,05,"31,503.06",,,,,,0.00,,0.00,0.00,,,,,,,,,,,,,,USD,,,,,,,,,1/0/1900 0:00,,,,0,,,,,0,0,,,0,0,,,,0.000,,,,,,,,,,,,0,,,,,,,,,,,,,,,,,,,,,,,,,,,,0,0.00,,0.00,0.00,,,,,,,,
4500000339,1710,F,NB,,,9,3/14/2019,S4H_MM_DEM,3/14/2019 22:10,10,10,EWM17-SU01,EN,0004,0,0,0,0.000,0.000,1710,002,USD,"1,00000",,3/14/2019,,,,,,,,,,,,,,,,,,,,,,,0.00,,,1000000781,A17001,SAP,EWM17-SU01,,,,1,,,,,,,US,,,US,,0,,,,05,"3,600.00",,,,,,0.00,,0.00,0.00,,,,,,,,,,,,,,USD,,,,,,,,,1/0/1900 0:00,,,,0,,,,,0,0,,,0,0,,,,0.000,,,,,,,,,,,,0,,,,,,,,,,,,,,,,,,,,,,,,,,,,0,0.00,,0.00,0.00,,,,,,,,
4500000381,1710,F,NB,,,9,9/27/2019,BPINST,9/27/2019 20:34,10,9,USSU-VSF04,EN,0002,14,30,0,2.000,0.000,1710,002,USD,"1,00000",,9/27/2019,,,,,,,,,,,,,,,,,,,,,,,0.00,,,1000000920,A17001,SAP,,,,,1,,,,,,,US,,,US,,0,,,,05,"337,388.22",,,,,,0.00,,0.00,0.00,,,,,,,,,,,,,,USD,,,,,,,,,1/0/1900 0:00,,,,0,,,,,0,0,,,0,0,,,,0.000,,,,,,,,,,,,0,,,,,,,,,,,,,,,,,,,,,,,,,,,,0,0.00,,0.00,0.00,,,,,,,,
4500000382,1710,F,NB,,,9,9/27/2019,BPINST,9/27/2019 20:35,10,9,USSU-VSF02,EN,0002,14,30,0,2.000,0.000,1710,002,USD,"1,00000",,9/27/2019,,,,,,,,,,,,,,,,,,,,,,,0.00,,,1000000921,A17001,SAP,,,,,1,,,,,,,US,,,US,,0,,,,05,"484,774.45",,,,,,0.00,,0.00,0.00,,,,,,,,,,,,,,USD,,,,,,,,,1/0/1900 0:00,,,,0,,,,,0,0,,,0,0,,,,0.000,,,,,,,,,,,,0,,,,,,,,,,,,,,,,,,,,,,,,,,,,0,0.00,,0.00,0.00,,,,,,,,
4500000383,1710,F,NB,,,9,9/27/2019,BPINST,9/27/2019 20:48,10,9,USSU-VSF04,EN,0002,14,30,0,2.000,0.000,1710,002,USD,"1,00000",,9/27/2019,,,,,,,,,,,,,,,,,,,,,,,0.00,,,1000000922,A17001,SAP,,,,,1,,,,,,,US,,,US,,0,,,,05,"614,219.58",,,,,,0.00,,0.00,0.00,,,,,,,,,,,,,,USD,,,,,,,,,1/0/1900 0:00,,,,0,,,,,0,0,,,0,0,,,,0.000,,,,,,,,,,,,0,,,,,,,,,,,,,,,,,,,,,,,,,,,,0,0.00,,0.00,0.00,,,,,,,,
4500000384,1710,F,NB,,,9,9/29/2019,BPINST,9/29/2019 15:47,10,9,USSU-VSF04,EN,0002,14,30,0,2.000,0.000,1710,002,USD,"1,00000",,9/29/2019,,,,,,,,,,,,,,,,,,,,,,,0.00,,,1000000940,A17001,SAP,,,,,1,,,,,,,US,,,US,,0,,,,05,"445,525.47",,,,,,0.00,,0.00,0.00,,,,,,,,,,,,,,USD,,,,,,,,,1/0/1900 0:00,,,,0,,,,,0,0,,,0,0,,,,0.000,,,,,,,,,,,,0,,,,,,,,,,,,,,,,,,,,,,,,,,,,0,0.00,,0.00,0.00,,,,,,,,
4500000385,1710,F,NB,,,9,9/29/2019,BPINST,9/29/2019 15:47,10,9,USSU-VSF02,EN,0002,14,30,0,2.000,0.000,1710,002,USD,"1,00000",,9/29/2019,,,,,,,,,,,,,,,,,,,,,,,0.00,,,1000000941,A17001,SAP,,,,,1,,,,,,,US,,,US,,0,,,,05,"330,059.20",,,,,,0.00,,0.00,0.00,,,,,,,,,,,,,,USD,,,,,,,,,1/0/1900 0:00,,,,0,,,,,0,0,,,0,0,,,,0.000,,,,,,,,,,,,0,,,,,,,,,,,,,,,,,,,,,,,,,,,,0,0.00,,0.00,0.00,,,,,,,,
4500000386,1710,F,NB,,,9,9/29/2019,BPINST,9/29/2019 16:02,10,9,USSU-VSF04,EN,0002,14,30,0,2.000,0.000,1710,002,USD,"1,00000",,9/29/2019,,,,,,,,,,,,,,,,,,,,,,,0.00,,,1000000942,A17001,SAP,,,,,1,,,,,,,US,,,US,,0,,,,05,"445,525.47",,,,,,0.00,,0.00,0.00,,,,,,,,,,,,,,USD,,,,,,,,,1/0/1900 0:00,,,,0,,,,,0,0,,,0,0,,,,0.000,,,,,,,,,,,,0,,,,,,,,,,,,,,,,,,,,,,,,,,,,0,0.00,,0.00,0.00,,,,,,,,
4500000387,1710,F,NB,,,9,9/29/2019,BPINST,9/29/2019 16:08,10,9,USSU-VSF02,EN,0002,14,30,0,2.000,0.000,1710,002,USD,"1,00000",,9/29/2019,,,,,,,,,,,,,,,,,,,,,,,0.00,,,1000000943,A17001,SAP,,,,,1,,,,,,,US,,,US,,0,,,,05,"330,059.20",,,,,,0.00,,0.00,0.00,,,,,,,,,,,,,,USD,,,,,,,,,1/0/1900 0:00,,,,0,,,,,0,0,,,0,0,,,,0.000,,,,,,,,,,,,0,,,,,,,,,,,,,,,,,,,,,,,,,,,,0,0.00,,0.00,0.00,,,,,,,,
4500000388,1710,F,NB,,,9,9/29/2019,BPINST,9/29/2019 16:09,10,9,USSU-VSF01,EN,0002,14,30,0,2.000,0.000,1710,002,USD,"1,00000",,9/29/2019,,,,,,,,,,,,,,,,,,,,,,,0.00,,,1000000944,A17001,SAP,,,,,1,,,,,,,US,,,US,,0,,,,05,"34,607.21",,,,,,0.00,,0.00,0.00,,,,,,,,,,,,,,USD,,,,,,,,,1/0/1900 0:00,,,,0,,,,,0,0,,,0,0,,,,0.000,,,,,,,,,,,,0,,,,,,,,,,,,,,,,,,,,,,,,,,,,0,0.00,,0.00,0.00,,,,,,,,
4500000389,1710,F,NB,,,9,9/29/2019,BPINST,9/29/2019 16:09,10,1,USSU-VSF01,EN,0002,14,30,0,2.000,0.000,1710,002,USD,"1,00000",,9/29/2019,,,,,,,,,,,,,,,,,,,,,,,0.00,,,1000000945,A17001,SAP,,,,,1,,,,,,,US,,,US,,0,,,,05,"33,260.04",,,,,,0.00,,0.00,0.00,,,,,,,,,,,,,,USD,,,,,,,,,1/0/1900 0:00,,,,0,,,,,0,0,,,0,0,,,,0.000,,,,,,,,,,,,0,,,,,,,,,,,,,,,,,,,,,,,,,,,,0,0.00,,0.00,0.00,,,,,,,,
4500000390,1710,F,NB,,,9,9/29/2019,BPINST,9/29/2019 16:09,10,1,USSU-VSF01,EN,0002,14,30,0,2.000,0.000,1710,002,USD,"1,00000",,9/29/2019,,,,,,,,,,,,,,,,,,,,,,,0.00,,,1000000946,A17001,SAP,,,,,1,,,,,,,US,,,US,,0,,,,05,"43,837.08",,,,,,0.00,,0.00,0.00,,,,,,,,,,,,,,USD,,,,,,,,,1/0/1900 0:00,,,,0,,,,,0,0,,,0,0,,,,0.000,,,,,,,,,,,,0,,,,,,,,,,,,,,,,,,,,,,,,,,,,0,0.00,,0.00,0.00,,,,,,,,
4500000391,1710,F,NB,,,9,9/29/2019,BPINST,9/29/2019 16:09,10,1,USSU-VSF01,EN,0002,14,30,0,2.000,0.000,1710,002,USD,"1,00000",,9/29/2019,,,,,,,,,,,,,,,,,,,,,,,0.00,,,1000000947,A17001,SAP,,,,,1,,,,,,,US,,,US,,0,,,,05,"19,612.28",,,,,,0.00,,0.00,0.00,,,,,,,,,,,,,,USD,,,,,,,,,1/0/1900 0:00,,,,0,,,,,0,0,,,0,0,,,,0.000,,,,,,,,,,,,0,,,,,,,,,,,,,,,,,,,,,,,,,,,,0,0.00,,0.00,0.00,,,,,,,,
4500000392,1710,F,NB,,,9,9/29/2019,BPINST,9/29/2019 16:09,10,10,USSU-VSF05,EN,0002,14,30,0,2.000,0.000,1710,002,USD,"1,00000",,9/29/2019,,,,,,,,,,,,,,,,,,,,,,,0.00,,,1000000948,A17001,SAP,,,,,1,,,,,,,US,,,US,,0,,,,05,"82,200.52",,,,,,0.00,,0.00,0.00,,,,,,,,,,,,,,USD,,,,,,,,,1/0/1900 0:00,,,,0,,,,,0,0,,,0,0,,,,0.000,,,,,,,,,,,,0,,,,,,,,,,,,,,,,,,,,,,,,,,,,0,0.00,,0.00,0.00,,,,,,,,
4500000393,1710,F,NB,,,9,9/29/2019,BPINST,9/29/2019 16:09,10,10,USSU-VSF06,EN,NT30,30,0,0,0.000,0.000,1710,002,USD,"1,00000",,9/29/2019,,,,,,,,,,,,,,,,,,,,,,,0.00,,,1000000949,A17001,SAP,,,,,1,,,,,,,US,,,US,,0,,,,05,"113,510.36",,,,,,0.00,,0.00,0.00,,,,,,,,,,,,,,USD,,,,,,,,,1/0/1900 0:00,,,,0,,,,,0,0,,,0,0,,,,0.000,,,,,,,,,,,,0,,,,,,,,,,,,,,,,,,,,,,,,,,,,0,0.00,,0.00,0.00,,,,,,,,
4500000394,1710,F,NB,,,9,9/29/2019,BPINST,9/29/2019 16:09,10,10,USSU-VSF07,EN,NT30,30,0,0,0.000,0.000,1710,002,USD,"1,00000",,9/29/2019,,,,,,,,,,,,,,,,,,,,,,,0.00,,,1000000950,A17001,SAP,,,,,1,,,,,,,US,,,US,,0,,,,05,"56,260.04",,,,,,0.00,,0.00,0.00,,,,,,,,,,,,,,USD,,,,,,,,,1/0/1900 0:00,,,,0,,,,,0,0,,,0,0,,,,0.000,,,,,,,,,,,,0,,,,,,,,,,,,,,,,,,,,,,,,,,,,0,0.00,,0.00,0.00,,,,,,,,
4500000395,1710,F,NB,,,9,9/29/2019,BPINST,9/29/2019 16:09,10,7,USSU-VSF08,EN,0002,14,30,0,2.000,0.000,1710,002,USD,"1,00000",,9/29/2019,,,,,,,,,,,,,,,,,,,,,,,0.00,,,1000000951,A17001,SAP,,,,,1,,,,,,,US,,,US,,0,,,,05,"76,296.00",,,,,,0.00,,0.00,0.00,,,,,,,,,,,,,,USD,,,,,,,,,1/0/1900 0:00,,,,0,,,,,0,0,,,0,0,,,,0.000,,,,,,,,,,,,0,,,,,,,,,,,,,,,,,,,,,,,,,,,,0,0.00,,0.00,0.00,,,,,,,,
4500000396,1710,F,NB,,,9,9/29/2019,BPINST,9/29/2019 16:10,10,7,USSU-VSF08,EN,0002,14,30,0,2.000,0.000,1710,002,USD,"1,00000",,9/29/2019,,,,,,,,,,,,,,,,,,,,,,,0.00,,,1000000952,A17001,SAP,,,,,1,,,,,,,US,,,US,,0,,,,05,"75,911.00",,,,,,0.00,,0.00,0.00,,,,,,,,,,,,,,USD,,,,,,,,,1/0/1900 0:00,,,,0,,,,,0,0,,,0,0,,,,0.000,,,,,,,,,,,,0,,,,,,,,,,,,,,,,,,,,,,,,,,,,0,0.00,,0.00,0.00,,,,,,,,
4500000397,1710,F,NB,,,9,9/29/2019,BPINST,9/29/2019 16:10,10,7,USSU-VSF06,EN,NT30,30,0,0,0.000,0.000,1710,002,USD,"1,00000",,9/29/2019,,,,,,,,,,,,,,,,,,,,,,,0.00,,,1000000953,A17001,SAP,,,,,1,,,,,,,US,,,US,,0,,,,05,"52,978.24",,,,,,0.00,,0.00,0.00,,,,,,,,,,,,,,USD,,,,,,,,,1/0/1900 0:00,,,,0,,,,,0,0,,,0,0,,,,0.000,,,,,,,,,,,,0,,,,,,,,,,,,,,,,,,,,,,,,,,,,0,0.00,,0.00,0.00,,,,,,,,
4500000398,1710,F,NB,,,9,9/29/2019,BPINST,9/29/2019 16:20,10,9,USSU-VSF04,EN,0002,14,30,0,2.000,0.000,1710,002,USD,"1,00000",,9/29/2019,,,,,,,,,,,,,,,,,,,,,,,0.00,,,1000000954,A17001,SAP,,,,,1,,,,,,,US,,,US,,0,,,,05,"445,525.47",,,,,,0.00,,0.00,0.00,,,,,,,,,,,,,,USD,,,,,,,,,1/0/1900 0:00,,,,0,,,,,0,0,,,0,0,,,,0.000,,,,,,,,,,,,0,,,,,,,,,,,,,,,,,,,,,,,,,,,,0,0.00,,0.00,0.00,,,,,,,,
4500000399,1710,F,NB,,,9,9/29/2019,BPINST,9/29/2019 16:20,10,9,USSU-VSF02,EN,0002,14,30,0,2.000,0.000,1710,002,USD,"1,00000",,9/29/2019,,,,,,,,,,,,,,,,,,,,,,,0.00,,,1000000955,A17001,SAP,,,,,1,,,,,,,US,,,US,,0,,,,05,"330,059.20",,,,,,0.00,,0.00,0.00,,,,,,,,,,,,,,USD,,,,,,,,,1/0/1900 0:00,,,,0,,,,,0,0,,,0,0,,,,0.000,,,,,,,,,,,,0,,,,,,,,,,,,,,,,,,,,,,,,,,,,0,0.00,,0.00,0.00,,,,,,,,
4500000400,1710,F,NB,,,9,9/29/2019,BPINST,9/29/2019 16:20,10,9,USSU-VSF01,EN,0002,14,30,0,2.000,0.000,1710,002,USD,"1,00000",,9/29/2019,,,,,,,,,,,,,,,,,,,,,,,0.00,,,1000000956,A17001,SAP,,,,,1,,,,,,,US,,,US,,0,,,,05,"34,607.21",,,,,,0.00,,0.00,0.00,,,,,,,,,,,,,,USD,,,,,,,,,1/0/1900 0:00,,,,0,,,,,0,0,,,0,0,,,,0.000,,,,,,,,,,,,0,,,,,,,,,,,,,,,,,,,,,,,,,,,,0,0.00,,0.00,0.00,,,,,,,,
4500000401,1710,F,NB,,,9,9/29/2019,BPINST,9/29/2019 16:20,10,1,USSU-VSF01,EN,0002,14,30,0,2.000,0.000,1710,002,USD,"1,00000",,9/29/2019,,,,,,,,,,,,,,,,,,,,,,,0.00,,,1000000957,A17001,SAP,,,,,1,,,,,,,US,,,US,,0,,,,05,"33,260.04",,,,,,0.00,,0.00,0.00,,,,,,,,,,,,,,USD,,,,,,,,,1/0/1900 0:00,,,,0,,,,,0,0,,,0,0,,,,0.000,,,,,,,,,,,,0,,,,,,,,,,,,,,,,,,,,,,,,,,,,0,0.00,,0.00,0.00,,,,,,,,
4500000402,1710,F,NB,,,9,9/29/2019,BPINST,9/29/2019 16:20,10,1,USSU-VSF01,EN,0002,14,30,0,2.000,0.000,1710,002,USD,"1,00000",,9/29/2019,,,,,,,,,,,,,,,,,,,,,,,0.00,,,1000000958,A17001,SAP,,,,,1,,,,,,,US,,,US,,0,,,,05,"43,837.08",,,,,,0.00,,0.00,0.00,,,,,,,,,,,,,,USD,,,,,,,,,1/0/1900 0:00,,,,0,,,,,0,0,,,0,0,,,,0.000,,,,,,,,,,,,0,,,,,,,,,,,,,,,,,,,,,,,,,,,,0,0.00,,0.00,0.00,,,,,,,,
4500000403,1710,F,NB,,,9,9/29/2019,BPINST,9/29/2019 16:20,10,1,USSU-VSF01,EN,0002,14,30,0,2.000,0.000,1710,002,USD,"1,00000",,9/29/2019,,,,,,,,,,,,,,,,,,,,,,,0.00,,,1000000959,A17001,SAP,,,,,1,,,,,,,US,,,US,,0,,,,05,"19,612.28",,,,,,0.00,,0.00,0.00,,,,,,,,,,,,,,USD,,,,,,,,,1/0/1900 0:00,,,,0,,,,,0,0,,,0,0,,,,0.000,,,,,,,,,,,,0,,,,,,,,,,,,,,,,,,,,,,,,,,,,0,0.00,,0.00,0.00,,,,,,,,
4500000404,1710,F,NB,,,9,9/29/2019,BPINST,9/29/2019 16:20,10,10,USSU-VSF05,EN,0002,14,30,0,2.000,0.000,1710,002,USD,"1,00000",,9/29/2019,,,,,,,,,,,,,,,,,,,,,,,0.00,,,1000000960,A17001,SAP,,,,,1,,,,,,,US,,,US,,0,,,,05,"82,200.52",,,,,,0.00,,0.00,0.00,,,,,,,,,,,,,,USD,,,,,,,,,1/0/1900 0:00,,,,0,,,,,0,0,,,0,0,,,,0.000,,,,,,,,,,,,0,,,,,,,,,,,,,,,,,,,,,,,,,,,,0,0.00,,0.00,0.00,,,,,,,,
4500000405,1710,F,NB,,,9,9/29/2019,BPINST,9/29/2019 16:20,10,10,USSU-VSF06,EN,NT30,30,0,0,0.000,0.000,1710,002,USD,"1,00000",,9/29/2019,,,,,,,,,,,,,,,,,,,,,,,0.00,,,1000000961,A17001,SAP,,,,,1,,,,,,,US,,,US,,0,,,,05,"113,510.36",,,,,,0.00,,0.00,0.00,,,,,,,,,,,,,,USD,,,,,,,,,1/0/1900 0:00,,,,0,,,,,0,0,,,0,0,,,,0.000,,,,,,,,,,,,0,,,,,,,,,,,,,,,,,,,,,,,,,,,,0,0.00,,0.00,0.00,,,,,,,,
4500000406,1710,F,NB,,,9,9/29/2019,BPINST,9/29/2019 16:20,10,10,USSU-VSF07,EN,NT30,30,0,0,0.000,0.000,1710,002,USD,"1,00000",,9/29/2019,,,,,,,,,,,,,,,,,,,,,,,0.00,,,1000000962,A17001,SAP,,,,,1,,,,,,,US,,,US,,0,,,,05,"56,260.04",,,,,,0.00,,0.00,0.00,,,,,,,,,,,,,,USD,,,,,,,,,1/0/1900 0:00,,,,0,,,,,0,0,,,0,0,,,,0.000,,,,,,,,,,,,0,,,,,,,,,,,,,,,,,,,,,,,,,,,,0,0.00,,0.00,0.00,,,,,,,,
4500000407,1710,F,NB,,,9,9/29/2019,BPINST,9/29/2019 16:20,10,7,USSU-VSF08,EN,0002,14,30,0,2.000,0.000,1710,002,USD,"1,00000",,9/29/2019,,,,,,,,,,,,,,,,,,,,,,,0.00,,,1000000963,A17001,SAP,,,,,1,,,,,,,US,,,US,,0,,,,05,"76,296.00",,,,,,0.00,,0.00,0.00,,,,,,,,,,,,,,USD,,,,,,,,,1/0/1900 0:00,,,,0,,,,,0,0,,,0,0,,,,0.000,,,,,,,,,,,,0,,,,,,,,,,,,,,,,,,,,,,,,,,,,0,0.00,,0.00,0.00,,,,,,,,
4500000408,1710,F,NB,,,9,9/29/2019,BPINST,9/29/2019 16:21,10,7,USSU-VSF08,EN,0002,14,30,0,2.000,0.000,1710,002,USD,"1,00000",,9/29/2019,,,,,,,,,,,,,,,,,,,,,,,0.00,,,1000000964,A17001,SAP,,,,,1,,,,,,,US,,,US,,0,,,,05,"75,911.00",,,,,,0.00,,0.00,0.00,,,,,,,,,,,,,,USD,,,,,,,,,1/0/1900 0:00,,,,0,,,,,0,0,,,0,0,,,,0.000,,,,,,,,,,,,0,,,,,,,,,,,,,,,,,,,,,,,,,,,,0,0.00,,0.00,0.00,,,,,,,,
4500000409,1710,F,NB,,,9,9/29/2019,BPINST,9/29/2019 16:21,10,7,USSU-VSF06,EN,NT30,30,0,0,0.000,0.000,1710,002,USD,"1,00000",,9/29/2019,,,,,,,,,,,,,,,,,,,,,,,0.00,,,1000000965,A17001,SAP,,,,,1,,,,,,,US,,,US,,0,,,,05,"52,978.24",,,,,,0.00,,0.00,0.00,,,,,,,,,,,,,,USD,,,,,,,,,1/0/1900 0:00,,,,0,,,,,0,0,,,0,0,,,,0.000,,,,,,,,,,,,0,,,,,,,,,,,,,,,,,,,,,,,,,,,,0,0.00,,0.00,0.00,,,,,,,,
4500000410,1710,F,NB,,,9,9/29/2019,BPINST,9/29/2019 17:16,10,9,USSU-VSF04,EN,0002,14,30,0,2.000,0.000,1710,002,USD,"1,00000",,9/29/2019,,,,,,,,,,,,,,,,,,,,,,,0.00,,,1000000980,A17001,SAP,,,,,1,,,,,,,US,,,US,,0,,,,05,"445,525.47",,,,,,0.00,,0.00,0.00,,,,,,,,,,,,,,USD,,,,,,,,,1/0/1900 0:00,,,,0,,,,,0,0,,,0,0,,,,0.000,,,,,,,,,,,,0,,,,,,,,,,,,,,,,,,,,,,,,,,,,0,0.00,,0.00,0.00,,,,,,,,
4500000411,1710,F,NB,,,9,9/29/2019,BPINST,9/29/2019 17:16,10,9,USSU-VSF02,EN,0002,14,30,0,2.000,0.000,1710,002,USD,"1,00000",,9/29/2019,,,,,,,,,,,,,,,,,,,,,,,0.00,,,1000000981,A17001,SAP,,,,,1,,,,,,,US,,,US,,0,,,,05,"330,059.20",,,,,,0.00,,0.00,0.00,,,,,,,,,,,,,,USD,,,,,,,,,1/0/1900 0:00,,,,0,,,,,0,0,,,0,0,,,,0.000,,,,,,,,,,,,0,,,,,,,,,,,,,,,,,,,,,,,,,,,,0,0.00,,0.00,0.00,,,,,,,,
4500000412,1710,F,NB,,,9,9/29/2019,BPINST,9/29/2019 17:16,10,9,USSU-VSF01,EN,0002,14,30,0,2.000,0.000,1710,002,USD,"1,00000",,9/29/2019,,,,,,,,,,,,,,,,,,,,,,,0.00,,,1000000982,A17001,SAP,,,,,1,,,,,,,US,,,US,,0,,,,05,"34,607.21",,,,,,0.00,,0.00,0.00,,,,,,,,,,,,,,USD,,,,,,,,,1/0/1900 0:00,,,,0,,,,,0,0,,,0,0,,,,0.000,,,,,,,,,,,,0,,,,,,,,,,,,,,,,,,,,,,,,,,,,0,0.00,,0.00,0.00,,,,,,,,
4500000413,1710,F,NB,,,9,9/29/2019,BPINST,9/29/2019 17:16,10,1,USSU-VSF01,EN,0002,14,30,0,2.000,0.000,1710,002,USD,"1,00000",,9/29/2019,,,,,,,,,,,,,,,,,,,,,,,0.00,,,1000000983,A17001,SAP,,,,,1,,,,,,,US,,,US,,0,,,,05,"33,260.04",,,,,,0.00,,0.00,0.00,,,,,,,,,,,,,,USD,,,,,,,,,1/0/1900 0:00,,,,0,,,,,0,0,,,0,0,,,,0.000,,,,,,,,,,,,0,,,,,,,,,,,,,,,,,,,,,,,,,,,,0,0.00,,0.00,0.00,,,,,,,,
4500000414,1710,F,NB,,,9,9/29/2019,BPINST,9/29/2019 17:16,10,1,USSU-VSF01,EN,0002,14,30,0,2.000,0.000,1710,002,USD,"1,00000",,9/29/2019,,,,,,,,,,,,,,,,,,,,,,,0.00,,,1000000984,A17001,SAP,,,,,1,,,,,,,US,,,US,,0,,,,05,"43,837.08",,,,,,0.00,,0.00,0.00,,,,,,,,,,,,,,USD,,,,,,,,,1/0/1900 0:00,,,,0,,,,,0,0,,,0,0,,,,0.000,,,,,,,,,,,,0,,,,,,,,,,,,,,,,,,,,,,,,,,,,0,0.00,,0.00,0.00,,,,,,,,
4500000415,1710,F,NB,,,9,9/29/2019,BPINST,9/29/2019 17:16,10,1,USSU-VSF01,EN,0002,14,30,0,2.000,0.000,1710,002,USD,"1,00000",,9/29/2019,,,,,,,,,,,,,,,,,,,,,,,0.00,,,1000000985,A17001,SAP,,,,,1,,,,,,,US,,,US,,0,,,,05,"19,612.28",,,,,,0.00,,0.00,0.00,,,,,,,,,,,,,,USD,,,,,,,,,1/0/1900 0:00,,,,0,,,,,0,0,,,0,0,,,,0.000,,,,,,,,,,,,0,,,,,,,,,,,,,,,,,,,,,,,,,,,,0,0.00,,0.00,0.00,,,,,,,,
4500000416,1710,F,NB,,,9,9/29/2019,BPINST,9/29/2019 17:16,10,10,USSU-VSF05,EN,0002,14,30,0,2.000,0.000,1710,002,USD,"1,00000",,9/29/2019,,,,,,,,,,,,,,,,,,,,,,,0.00,,,1000000986,A17001,SAP,,,,,1,,,,,,,US,,,US,,0,,,,05,"82,200.52",,,,,,0.00,,0.00,0.00,,,,,,,,,,,,,,USD,,,,,,,,,1/0/1900 0:00,,,,0,,,,,0,0,,,0,0,,,,0.000,,,,,,,,,,,,0,,,,,,,,,,,,,,,,,,,,,,,,,,,,0,0.00,,0.00,0.00,,,,,,,,
4500000417,1710,F,NB,,,9,9/29/2019,BPINST,9/29/2019 17:16,10,10,USSU-VSF06,EN,NT30,30,0,0,0.000,0.000,1710,002,USD,"1,00000",,9/29/2019,,,,,,,,,,,,,,,,,,,,,,,0.00,,,1000000987,A17001,SAP,,,,,1,,,,,,,US,,,US,,0,,,,05,"113,510.36",,,,,,0.00,,0.00,0.00,,,,,,,,,,,,,,USD,,,,,,,,,1/0/1900 0:00,,,,0,,,,,0,0,,,0,0,,,,0.000,,,,,,,,,,,,0,,,,,,,,,,,,,,,,,,,,,,,,,,,,0,0.00,,0.00,0.00,,,,,,,,
4500000418,1710,F,NB,,,9,9/29/2019,BPINST,9/29/2019 17:16,10,10,USSU-VSF07,EN,NT30,30,0,0,0.000,0.000,1710,002,USD,"1,00000",,9/29/2019,,,,,,,,,,,,,,,,,,,,,,,0.00,,,1000000988,A17001,SAP,,,,,1,,,,,,,US,,,US,,0,,,,05,"56,260.04",,,,,,0.00,,0.00,0.00,,,,,,,,,,,,,,USD,,,,,,,,,1/0/1900 0:00,,,,0,,,,,0,0,,,0,0,,,,0.000,,,,,,,,,,,,0,,,,,,,,,,,,,,,,,,,,,,,,,,,,0,0.00,,0.00,0.00,,,,,,,,
4500000419,1710,F,NB,,,9,9/29/2019,BPINST,9/29/2019 17:16,10,7,USSU-VSF08,EN,0002,14,30,0,2.000,0.000,1710,002,USD,"1,00000",,9/29/2019,,,,,,,,,,,,,,,,,,,,,,,0.00,,,1000000989,A17001,SAP,,,,,1,,,,,,,US,,,US,,0,,,,05,"76,296.00",,,,,,0.00,,0.00,0.00,,,,,,,,,,,,,,USD,,,,,,,,,1/0/1900 0:00,,,,0,,,,,0,0,,,0,0,,,,0.000,,,,,,,,,,,,0,,,,,,,,,,,,,,,,,,,,,,,,,,,,0,0.00,,0.00,0.00,,,,,,,,
4500000420,1710,F,NB,,,9,9/29/2019,BPINST,9/29/2019 17:16,10,7,USSU-VSF08,EN,0002,14,30,0,2.000,0.000,1710,002,USD,"1,00000",,9/29/2019,,,,,,,,,,,,,,,,,,,,,,,0.00,,,1000000990,A17001,SAP,,,,,1,,,,,,,US,,,US,,0,,,,05,"75,911.00",,,,,,0.00,,0.00,0.00,,,,,,,,,,,,,,USD,,,,,,,,,1/0/1900 0:00,,,,0,,,,,0,0,,,0,0,,,,0.000,,,,,,,,,,,,0,,,,,,,,,,,,,,,,,,,,,,,,,,,,0,0.00,,0.00,0.00,,,,,,,,
4500000421,1710,F,NB,,,9,9/29/2019,BPINST,9/29/2019 17:16,10,7,USSU-VSF06,EN,NT30,30,0,0,0.000,0.000,1710,002,USD,"1,00000",,9/29/2019,,,,,,,,,,,,,,,,,,,,,,,0.00,,,1000000991,A17001,SAP,,,,,1,,,,,,,US,,,US,,0,,,,05,"52,978.24",,,,,,0.00,,0.00,0.00,,,,,,,,,,,,,,USD,,,,,,,,,1/0/1900 0:00,,,,0,,,,,0,0,,,0,0,,,,0.000,,,,,,,,,,,,0,,,,,,,,,,,,,,,,,,,,,,,,,,,,0,0.00,,0.00,0.00,,,,,,,,
4500000422,1710,F,NB,,,9,9/29/2019,BPINST,9/29/2019 17:23,10,9,USSU-VSF04,EN,0002,14,30,0,2.000,0.000,1710,002,USD,"1,00000",,9/29/2019,,,,,,,,,,,,,,,,,,,,,,,0.00,,,1000001000,A17001,SAP,,,,,1,,,,,,,US,,,US,,0,,,,05,"393,619.59",,,,,,0.00,,0.00,0.00,,,,,,,,,,,,,,USD,,,,,,,,,1/0/1900 0:00,,,,0,,,,,0,0,,,0,0,,,,0.000,,,,,,,,,,,,0,,,,,,,,,,,,,,,,,,,,,,,,,,,,0,0.00,,0.00,0.00,,,,,,,,
4500000423,1710,F,NB,,,9,9/29/2019,BPINST,9/29/2019 17:23,10,9,USSU-VSF02,EN,0002,14,30,0,2.000,0.000,1710,002,USD,"1,00000",,9/29/2019,,,,,,,,,,,,,,,,,,,,,,,0.00,,,1000001001,A17001,SAP,,,,,1,,,,,,,US,,,US,,0,,,,05,"251,670.14",,,,,,0.00,,0.00,0.00,,,,,,,,,,,,,,USD,,,,,,,,,1/0/1900 0:00,,,,0,,,,,0,0,,,0,0,,,,0.000,,,,,,,,,,,,0,,,,,,,,,,,,,,,,,,,,,,,,,,,,0,0.00,,0.00,0.00,,,,,,,,
4500000424,1710,F,NB,,,9,9/29/2019,BPINST,9/29/2019 17:23,10,9,USSU-VSF01,EN,0002,14,30,0,2.000,0.000,1710,002,USD,"1,00000",,9/29/2019,,,,,,,,,,,,,,,,,,,,,,,0.00,,,1000001002,A17001,SAP,,,,,1,,,,,,,US,,,US,,0,,,,05,"40,041.40",,,,,,0.00,,0.00,0.00,,,,,,,,,,,,,,USD,,,,,,,,,1/0/1900 0:00,,,,0,,,,,0,0,,,0,0,,,,0.000,,,,,,,,,,,,0,,,,,,,,,,,,,,,,,,,,,,,,,,,,0,0.00,,0.00,0.00,,,,,,,,
4500000425,1710,F,NB,,,9,9/29/2019,BPINST,9/29/2019 17:24,10,1,USSU-VSF01,EN,0002,14,30,0,2.000,0.000,1710,002,USD,"1,00000",,9/29/2019,,,,,,,,,,,,,,,,,,,,,,,0.00,,,1000001003,A17001,SAP,,,,,1,,,,,,,US,,,US,,0,,,,05,"25,823.52",,,,,,0.00,,0.00,0.00,,,,,,,,,,,,,,USD,,,,,,,,,1/0/1900 0:00,,,,0,,,,,0,0,,,0,0,,,,0.000,,,,,,,,,,,,0,,,,,,,,,,,,,,,,,,,,,,,,,,,,0,0.00,,0.00,0.00,,,,,,,,
4500000426,1710,F,NB,,,9,9/29/2019,BPINST,9/29/2019 17:24,10,1,USSU-VSF01,EN,0002,14,30,0,2.000,0.000,1710,002,USD,"1,00000",,9/29/2019,,,,,,,,,,,,,,,,,,,,,,,0.00,,,1000001004,A17001,SAP,,,,,1,,,,,,,US,,,US,,0,,,,05,"21,714.33",,,,,,0.00,,0.00,0.00,,,,,,,,,,,,,,USD,,,,,,,,,1/0/1900 0:00,,,,0,,,,,0,0,,,0,0,,,,0.000,,,,,,,,,,,,0,,,,,,,,,,,,,,,,,,,,,,,,,,,,0,0.00,,0.00,0.00,,,,,,,,
4500000427,1710,F,NB,,,9,9/29/2019,BPINST,9/29/2019 17:24,10,1,USSU-VSF01,EN,0002,14,30,0,2.000,0.000,1710,002,USD,"1,00000",,9/29/2019,,,,,,,,,,,,,,,,,,,,,,,0.00,,,1000001005,A17001,SAP,,,,,1,,,,,,,US,,,US,,0,,,,05,"34,625.22",,,,,,0.00,,0.00,0.00,,,,,,,,,,,,,,USD,,,,,,,,,1/0/1900 0:00,,,,0,,,,,0,0,,,0,0,,,,0.000,,,,,,,,,,,,0,,,,,,,,,,,,,,,,,,,,,,,,,,,,0,0.00,,0.00,0.00,,,,,,,,
4500000428,1710,F,NB,,,9,9/29/2019,BPINST,9/29/2019 17:24,10,10,USSU-VSF05,EN,0002,14,30,0,2.000,0.000,1710,002,USD,"1,00000",,9/29/2019,,,,,,,,,,,,,,,,,,,,,,,0.00,,,1000001006,A17001,SAP,,,,,1,,,,,,,US,,,US,,0,,,,05,"99,405.28",,,,,,0.00,,0.00,0.00,,,,,,,,,,,,,,USD,,,,,,,,,1/0/1900 0:00,,,,0,,,,,0,0,,,0,0,,,,0.000,,,,,,,,,,,,0,,,,,,,,,,,,,,,,,,,,,,,,,,,,0,0.00,,0.00,0.00,,,,,,,,
4500000429,1710,F,NB,,,9,9/29/2019,BPINST,9/29/2019 17:24,10,10,USSU-VSF06,EN,NT30,30,0,0,0.000,0.000,1710,002,USD,"1,00000",,9/29/2019,,,,,,,,,,,,,,,,,,,,,,,0.00,,,1000001007,A17001,SAP,,,,,1,,,,,,,US,,,US,,0,,,,05,"108,481.42",,,,,,0.00,,0.00,0.00,,,,,,,,,,,,,,USD,,,,,,,,,1/0/1900 0:00,,,,0,,,,,0,0,,,0,0,,,,0.000,,,,,,,,,,,,0,,,,,,,,,,,,,,,,,,,,,,,,,,,,0,0.00,,0.00,0.00,,,,,,,,
